ACCELEROMETER X (m/s²),ACCELEROMETER Y (m/s²),ACCELEROMETER Z (m/s²),GRAVITY X (m/s²),GRAVITY Y (m/s²),GRAVITY Z (m/s²),LINEAR ACCELERATION X (m/s²),LINEAR ACCELERATION Y (m/s²),LINEAR ACCELERATION Z (m/s²),GYROSCOPE X (rad/s),GYROSCOPE Y (rad/s),GYROSCOPE Z (rad/s),LIGHT (lux),MAGNETIC FIELD X (μT),MAGNETIC FIELD Y (μT),MAGNETIC FIELD Z (μT),ORIENTATION Z (azimuth °),ORIENTATION X (pitch °),ORIENTATION Y (roll °),PROXIMITY (i),ATMOSPHERIC PRESSURE (hPa),SOUND LEVEL (dB),LOCATION Latitude : ,LOCATION Longitude : ,LOCATION Altitude ( m),LOCATION Altitude-google ( m),LOCATION Altitude-atmospheric pressure ( m),LOCATION Speed ( Kmh),LOCATION Accuracy ( m),LOCATION ORIENTATION (°),Satellites in range,Time since start in ms ,YYYY-MO-DD HH-MI-SS_SSS
0.68587,2.22052,9.53978,-0.074,1.91458,9.61766,0.16676,0.22436,0.26831,-0.10672,-0.03467,-0.05602,14.0,-17.494,0.096,-42.86,64.223,-11.258,0.441,1.97,1001.689,26.3483,48.234737,16.366467,,536.4249329019801,,,64.51613,,0 / 23,4,2016-09-12 09:34:49:557
0.43417,2.67767,9.2357,0.06052,1.93369,9.61393,0.48688,0.46157,-0.28473,0.01585,-0.07387,-0.08054,14.0,-17.235,-0.249,-41.501,64.46,-11.135,-0.03,1.97,1001.68,26.3483,48.234737,16.366467,,536.4249329019801,,,64.51613,,0 / 23,104,2016-09-12 09:34:49:657
0.18556,2.13953,9.41718,0.09781,1.82872,9.63414,0.18284,0.26033,-0.30342,-0.09592,-0.03432,-0.08299,14.0,-18.398,-0.665,-42.558,67.013,-11.372,-0.361,1.97,1001.679,26.3483,48.234737,16.366467,,536.4249329019801,,,64.51613,,0 / 23,204,2016-09-12 09:34:49:757
0.40913,2.70313,9.09724,0.074,1.79613,9.64048,0.08536,0.67445,-0.26157,-0.1884,-0.04839,-0.19337,14.44963,-18.9,0.475,-43.054,67.059,-10.554,-0.44,1.97,1001.679,26.3483,48.234737,16.366467,,536.4249329019801,,,64.51613,,0 / 23,304,2016-09-12 09:34:49:857
0.66154,2.60712,9.86012,0.03262,1.89567,9.62163,0.04673,0.68817,0.20459,0.04546,0.02301,-0.10526,15.0,-17.642,-0.621,-42.705,67.645,-11.146,-0.194,1.97,1001.679,39.6164,48.234737,16.366467,,536.4249329019801,,,64.51613,,0 / 23,404,2016-09-12 09:34:49:957
0.10486,2.96063,9.55824,0.14305,2.06749,9.58517,0.64676,0.66621,-0.1065,0.11583,-0.03691,0.02702,15.0,-18.193,-1.468,-42.516,67.645,-11.146,-0.194,1.97,1001.679,39.6164,48.234737,16.366467,,536.4249329019801,,,64.51613,,0 / 23,504,2016-09-12 09:34:50:057
0.18578,2.83264,10.50105,0.0928,2.33395,9.52441,-0.10749,0.50063,0.51532,0.18272,0.08015,0.07564,15.0,-18.507,-2.028,-42.334,66.464,-13.768,-0.558,1.97,1001.689,39.6164,48.234737,16.366467,,536.4249329019801,,,64.51613,,0 / 23,605,2016-09-12 09:34:50:158
0.3316,2.54434,9.23067,-0.0232,2.50895,9.48024,0.34878,0.10368,0.36829,0.32373,0.19714,0.13112,15.0,-17.882,-2.37,-41.252,65.944,-13.768,-0.558,1.97,1001.689,20.7745,48.234737,16.366467,,536.4249329019801,,,64.51613,,0 / 23,705,2016-09-12 09:34:50:258
-0.99512,1.46844,9.53233,-0.12196,2.62837,9.44707,-0.38637,-0.7205,0.14674,0.09288,0.0186,0.00333,15.45,-17.97,-2.092,-41.029,64.095,-15.546,0.74,1.97,1001.689,20.7745,48.234737,16.366467,,536.4249329019801,,,64.51613,,0 / 23,804,2016-09-12 09:34:50:357
-1.17334,1.94127,8.34398,-0.15209,2.66626,9.43601,-0.69093,-1.08171,-0.00662,0.10431,0.07874,0.19144,16.0,-17.513,-3.465,-42.441,65.649,-15.776,0.923,1.97,1001.689,20.7745,48.234737,16.366467,,536.4249329019801,,,64.51613,,0 / 23,904,2016-09-12 09:34:50:457
-0.27812,1.90639,10.24802,0.01521,2.18427,9.56029,-0.23181,-0.27348,0.70258,-0.48553,-0.16623,0.19098,16.44833,-16.629,-0.914,-42.491,61.159,-14.699,0.685,1.97,1001.689,45.5515,48.234737,16.366467,,536.4249329019801,,,64.51613,,0 / 23,1004,2016-09-12 09:34:50:557
-0.69102,2.54192,8.14424,-0.03114,2.12193,9.57428,-0.64224,0.47264,-1.5173,-0.0585,0.05937,0.17923,17.0,-17.23,0.166,-41.879,61.79,-12.501,-0.061,1.97,1001.689,45.5515,48.234737,16.366467,,536.4249329019801,,,64.51613,,0 / 23,1105,2016-09-12 09:34:50:658
-0.57632,2.4846,9.86876,0.00509,2.05663,9.58857,-0.64849,-0.0106,0.16218,-0.07422,-0.02168,0.20491,17.0,-17.207,-0.241,-42.397,62.574,-12.106,-0.03,1.97,1001.689,45.5515,48.234737,16.366467,,536.4249329019801,,,64.51613,,0 / 23,1204,2016-09-12 09:34:50:757
-1.31285,2.54192,10.35439,-0.04506,2.2981,9.53347,-1.2336,0.37822,0.21508,0.28668,0.07344,0.175,17.0,-17.223,0.554,-42.413,57.883,-13.553,0.271,1.97,1001.689,15.764,48.234737,16.366467,,536.4249329019801,,,64.51613,,0 / 23,1304,2016-09-12 09:34:50:857
-0.91502,1.8577,10.60754,-0.06424,2.4624,9.49225,-0.99683,0.20691,0.63744,0.2422,0.08531,0.3889,17.0,-16.571,-0.475,-42.792,58.087,-14.542,0.388,1.97,1001.689,15.764,48.234737,16.366467,,536.4249329019801,,,64.51613,,0 / 23,1404,2016-09-12 09:34:50:957
0.21686,0.60445,9.99817,-0.05213,2.46671,9.49121,-0.82875,-1.32751,1.79213,0.30426,-0.19751,0.26961,17.0,-17.993,0.162,-42.413,60.483,-14.466,0.61,1.97,1001.689,15.764,48.234737,16.366467,,536.4249329019801,,,64.51613,,0 / 23,1504,2016-09-12 09:34:51:057
-0.71753,1.46011,9.6499,0.0567,2.68694,9.4312,0.07617,-2.06088,0.39427,0.42708,0.06645,0.44907,17.0,-16.873,-0.851,-41.969,60.944,-14.568,0.315,1.97,1001.689,15.764,48.234737,16.366467,,536.4249329019801,,,64.51613,,0 / 23,1604,2016-09-12 09:34:51:157
-1.73819,1.76642,9.6463,0.08187,2.60381,9.45431,-1.94703,-1.25754,0.9482,0.04648,0.18887,0.94064,16.55,-16.742,0.331,-40.596,56.721,-15.398,-0.496,1.97,1001.689,15.5811,48.234737,16.366467,,536.4249329019801,,,64.51613,,0 / 23,1705,2016-09-12 09:34:51:258
-1.27606,2.03204,9.52107,0.11423,2.5546,9.46738,-1.74294,-0.38327,-1.2389,0.04648,0.18887,0.94064,16.0,-16.742,0.331,-40.596,56.721,-15.398,-0.496,1.97,1001.689,15.5811,48.234737,16.366467,,536.4249329019801,,,64.51613,,0 / 23,1805,2016-09-12 09:34:51:358
-0.24272,1.54813,9.94975,0.19828,2.43512,9.49743,-0.84827,-0.84129,0.22343,-0.01863,0.27214,1.49797,16.0,-16.382,2.794,-41.597,48.39,-14.567,-1.03,1.97,1001.679,15.5811,48.234737,16.366467,,536.4249329019801,,,64.51613,,0 / 23,1905,2016-09-12 09:34:51:458
-0.54939,1.34888,10.237,0.08513,2.55907,9.46648,-0.60444,-1.21507,0.63737,0.20595,0.59361,1.83049,16.0,-15.205,5.539,-42.538,40.734,-14.507,-0.893,1.97,1001.678,15.4826,48.234737,16.366467,,536.4249329019801,,,64.51613,,0 / 23,2004,2016-09-12 09:34:51:557
-0.0439,1.74686,9.1415,0.12239,2.68238,9.43187,-0.02218,-1.08968,0.06586,0.31648,0.49782,1.90286,15.54935,-11.467,6.989,-43.176,30.519,-15.127,-0.515,1.97,1001.671,15.4826,48.234737,16.366467,,536.4249329019801,,,64.51613,,0 / 23,2104,2016-09-12 09:34:51:657
0.13641,1.64055,10.27661,0.30684,2.3989,9.50376,-0.11921,-0.51841,0.22581,-0.29222,0.33301,1.73792,15.0,-7.431,6.848,-43.214,17.909,-14.159,-1.849,1.97,1001.679,15.4826,48.234737,16.366467,,536.4249329019801,,,64.51613,,0 / 23,2204,2016-09-12 09:34:51:757
0.28128,2.50644,8.75291,0.28815,2.27638,9.53444,-0.16792,-0.76142,0.26283,-0.14993,0.30334,1.45155,15.0,-7.799,9.425,-43.08,19.621,-13.422,-1.731,1.97,1001.679,15.4589,48.234737,16.366467,,536.4249329019801,,,64.51613,,0 / 23,2304,2016-09-12 09:34:51:857
0.68961,2.16286,9.91763,0.27893,1.97173,9.60234,-0.04158,0.24672,-0.15131,-0.25291,0.15688,0.96561,15.0,-4.024,10.869,-44.102,7.886,-11.599,-1.664,1.97,1001.679,15.4589,48.234737,16.366467,,536.4249329019801,,,64.51613,,0 / 23,2404,2016-09-12 09:34:51:957
0.00797,3.04511,8.9204,0.24809,1.94571,9.60849,-0.17526,1.18474,-1.26815,-0.05986,0.1902,0.64113,15.0,-3.769,12.059,-43.646,7.947,-11.444,-1.479,1.97,1001.679,15.4589,48.234737,16.366467,,536.4249329019801,,,64.51613,,0 / 23,2504,2016-09-12 09:34:52:057
-0.57787,3.27261,9.70949,0.14749,1.93638,9.61244,-0.46405,1.35609,-0.07961,-0.03143,0.09602,0.3363,15.0,-1.411,11.502,-43.074,0.962,-11.388,-0.879,1.97,1001.679,15.6065,48.234737,16.366467,,536.4249329019801,,,64.51613,,0 / 23,2605,2016-09-12 09:34:52:158
-0.90923,2.81467,11.21965,0.13961,2.00065,9.59939,-0.68983,0.86338,1.45199,0.11893,0.07085,0.23045,14.54967,-0.674,11.449,-42.587,1.011,-11.388,-0.879,1.97,1001.679,15.6065,48.234737,16.366467,,536.4249329019801,,,64.51613,,0 / 23,2704,2016-09-12 09:34:52:257
-0.30377,0.67775,11.64194,-0.04925,2.1892,9.55905,-0.28982,-0.22752,1.32851,-0.06189,0.19189,0.35197,14.0,1.875,9.879,-42.633,354.749,-12.899,0.295,1.97,1001.676,15.6065,48.234737,16.366467,,536.4249329019801,,,64.51613,,0 / 23,2804,2016-09-12 09:34:52:357
1.15939,1.9045,7.30443,0.03927,2.43653,9.49906,0.85002,-0.68627,-1.65208,0.24582,0.14685,0.01541,13.55031,1.677,9.187,-42.366,353.525,-14.386,-0.237,1.97,1001.679,15.6065,48.234737,16.366467,,536.4249329019801,,,64.51613,,0 / 23,2905,2016-09-12 09:34:52:458
-0.40727,1.32298,9.68651,0.00955,2.39298,9.5102,0.60704,-0.59677,-1.33026,-0.20473,-0.08005,-0.03844,13.0,1.357,8.739,-42.912,356.893,-14.124,-0.058,1.97,1001.688,19.4716,48.234737,16.366467,,536.4249329019801,,,64.51613,,0 / 23,3004,2016-09-12 09:34:52:557
-0.01247,2.46986,8.32481,0.25877,2.25198,9.54107,-0.45932,-0.34753,-0.9006,-0.03569,-0.1445,0.20053,13.0,0.357,9.468,-41.603,356.459,-13.276,-1.554,1.97,1001.679,19.4716,48.234737,16.366467,,536.4249329019801,,,64.51613,,0 / 23,3104,2016-09-12 09:34:52:657
0.74994,2.58997,9.99524,0.32057,2.21588,9.54764,-0.15246,0.94855,-1.45458,-0.12857,0.00714,0.172,13.0,0.34,9.799,-41.586,355.807,-13.059,-1.923,1.97,1001.689,19.4716,48.234737,16.366467,,536.4249329019801,,,64.51613,,0 / 23,3204,2016-09-12 09:34:52:757
0.73653,2.98538,10.38483,0.31045,2.36586,9.51192,0.35104,0.78939,-0.17925,0.24657,0.07819,0.08,12.55199,0.673,9.161,-40.939,352.628,-13.3,-1.89,1.97,1001.689,34.526,48.234737,16.366467,,536.4249329019801,,,64.51613,,0 / 23,3305,2016-09-12 09:34:52:858
-0.06551,3.49332,9.45618,0.3001,2.49905,9.47814,0.45685,0.31888,1.02772,0.07477,0.00739,0.13591,12.0,-0.673,10.152,-42.859,358.85,-13.96,-1.869,1.97,1001.689,34.526,48.234737,16.366467,,536.4249329019801,,,64.51613,,0 / 23,3404,2016-09-12 09:34:52:957
-0.32541,1.43616,11.59683,0.2604,2.32527,9.52343,-0.70825,-0.42885,1.27767,-0.23709,0.25104,0.32625,12.0,0.356,8.339,-41.824,356.295,-13.716,-1.566,1.97,1001.679,34.526,48.234737,16.366467,,536.4249329019801,,,64.51613,,0 / 23,3504,2016-09-12 09:34:53:057
-0.49898,2.34381,7.88385,0.21404,2.29465,9.53201,-0.54396,-1.06064,1.71719,-0.38211,-0.39639,-0.17513,12.0,1.666,8.691,-42.061,350.994,-13.532,-1.286,1.97,1001.679,21.6034,48.234737,16.366467,,536.4249329019801,,,64.51613,,0 / 23,3604,2016-09-12 09:34:53:157
-0.22438,1.85277,9.20538,0.14207,2.19479,9.55683,-0.56865,-0.41084,0.16132,-0.33435,-0.09111,0.22437,12.0,2.727,9.987,-39.935,350.598,-13.615,-0.241,1.97,1001.679,21.6034,48.234737,16.366467,,536.4249329019801,,,64.51613,,0 / 23,3704,2016-09-12 09:34:53:257
-0.25381,3.16037,8.28676,0.22171,2.25081,9.54228,-0.16298,0.59517,-1.63178,-4.6E-4,0.00702,0.08578,12.0,1.48,9.596,-40.588,354.175,-13.269,-1.331,1.97,1001.679,21.6034,48.234737,16.366467,,536.4249329019801,,,64.51613,,0 / 23,3804,2016-09-12 09:34:53:357
-0.14291,2.85876,10.01373,0.18462,2.28668,9.53454,-0.42867,0.79629,-1.15068,0.03061,0.03706,-0.08771,12.0,1.968,9.761,-41.44,351.754,-13.484,-1.109,1.97,1001.679,15.6642,48.234737,16.366467,,536.4249329019801,,,64.51613,,0 / 23,3904,2016-09-12 09:34:53:457
0.56371,3.57178,9.67947,0.17924,2.60828,9.45173,-0.14915,0.18379,1.05559,0.37935,-0.0515,-0.03168,11.54836,2.155,8.885,-40.009,351.896,-13.99,-0.887,1.97,1001.684,15.6642,48.234737,16.366467,,536.4249329019801,,,64.51613,,0 / 23,4004,2016-09-12 09:34:53:557
-0.59933,0.64445,13.23601,0.08262,2.60378,9.45431,0.18164,0.91126,-0.27956,-0.03305,0.17117,0.02534,11.0,2.214,8.301,-39.769,352.695,-15.397,-0.501,1.97,1001.689,15.6642,48.234737,16.366467,,536.4249329019801,,,64.51613,,0 / 23,4104,2016-09-12 09:34:53:657
0.77847,1.53069,7.51199,0.12272,2.45491,9.49362,0.68552,-0.94349,-1.50466,0.02789,-0.15114,-0.19334,11.0,3.119,9.714,-39.244,349.78,-14.497,-0.741,1.97,1001.689,15.6642,48.234737,16.366467,,536.4249329019801,,,64.51613,,0 / 23,4204,2016-09-12 09:34:53:757
-0.05937,1.8055,8.7095,0.10273,2.36392,9.51692,0.39305,-0.71931,-0.32042,-0.14262,-0.00887,-0.17612,11.0,2.556,9.995,-39.316,349.78,-14.497,-0.741,1.97,1001.689,20.2118,48.234737,16.366467,,536.4249329019801,,,64.51613,,0 / 23,4304,2016-09-12 09:34:53:857
-0.19563,2.54083,8.31505,0.12656,2.32312,9.52667,-0.42377,0.01592,-1.52234,-0.01767,0.05452,0.03984,11.0,2.118,10.962,-40.475,352.842,-13.703,-0.761,1.97,1001.689,20.2118,48.234737,16.366467,,536.4249329019801,,,64.51613,,0 / 23,4404,2016-09-12 09:34:53:957
0.70717,2.3838,9.73296,0.10057,2.28733,9.53564,0.07679,0.45214,-0.87786,-0.09392,0.02139,0.04199,11.0,1.402,11.832,-39.536,355.855,-13.703,-0.761,1.97,1001.689,20.2118,48.234737,16.366467,,536.4249329019801,,,64.51613,,0 / 23,4504,2016-09-12 09:34:54:057
-0.07733,2.8696,9.66713,0.07946,2.44843,9.49575,0.2922,-0.01333,0.40476,0.25583,0.10599,0.2354,11.0,3.671,10.786,-38.838,348.015,-14.458,-0.479,1.97,1001.689,15.8126,48.234737,16.366467,,536.4249329019801,,,64.51613,,0 / 23,4604,2016-09-12 09:34:54:157
-1.18364,2.59764,9.71872,0.01071,2.58825,9.45892,-0.03754,0.3567,0.24799,0.19069,0.24307,0.30414,11.0,3.751,10.803,-38.612,349.05,-15.303,-0.065,1.97,1001.689,15.8126,48.234737,16.366467,,536.4249329019801,,,64.51613,,0 / 23,4704,2016-09-12 09:34:54:257
-0.74002,0.70172,11.63084,-0.03438,2.13984,9.57028,-0.48272,-1.42583,2.33105,-0.11897,-0.05478,-0.01581,11.0,4.424,12.819,-39.279,349.681,-12.604,0.206,1.97,1001.689,15.8126,48.234737,16.366467,,536.4249329019801,,,64.51613,,0 / 23,4805,2016-09-12 09:34:54:358
0.03685,1.38556,9.98279,-0.14814,2.09944,9.57814,-0.02713,-0.52458,-0.734,0.17506,0.55902,0.53711,11.0,4.282,13.692,-38.426,351.47,-12.722,1.046,1.97,1001.689,15.6569,48.234737,16.366467,,536.4249329019801,,,64.51613,,0 / 23,4905,2016-09-12 09:34:54:458
0.09738,2.56728,7.0907,0.07591,2.08125,9.58296,0.34632,-0.39072,0.35805,-0.32773,-0.49782,0.10622,11.45096,5.206,12.44,-37.424,347.308,-12.362,0.886,1.97,1001.689,15.6569,48.234737,16.366467,,536.4249329019801,,,64.51613,,0 / 23,5005,2016-09-12 09:34:54:558
-0.85312,2.46548,9.7112,0.03671,2.17997,9.56121,-0.1673,0.632,-1.5238,0.00722,0.09808,0.01709,12.0,4.056,13.652,-36.876,349.276,-12.844,-0.22,1.97,1001.689,15.6569,48.234737,16.366467,,536.4249329019801,,,64.51613,,0 / 23,5106,2016-09-12 09:34:54:659
-0.81584,2.9653,10.31998,-0.01742,2.15316,9.56734,-0.7649,0.38381,0.21481,-0.14862,0.05338,-0.12152,12.0,5.733,14.04,-38.283,344.915,-12.683,0.104,1.97,1001.689,15.5891,48.234737,16.366467,,536.4249329019801,,,64.51613,,0 / 23,5205,2016-09-12 09:34:54:758
-0.1803,3.10184,10.37599,-0.0984,2.3667,9.51627,-0.5784,0.35597,1.47981,0.19881,0.07874,0.11739,12.0,4.649,13.196,-37.926,348.067,-13.965,0.592,1.97,1001.689,15.5891,48.234737,16.366467,,536.4249329019801,,,64.51613,,0 / 23,5305,2016-09-12 09:34:54:858
1.27953,-0.03569,13.17125,-0.03949,2.24083,9.54712,0.22206,1.23932,-0.25197,-0.12865,-0.01688,0.10791,12.0,4.773,12.187,-38.283,346.627,-13.209,0.237,1.97,1001.686,15.5891,48.234737,16.366467,,536.4249329019801,,,64.51613,,0 / 23,5405,2016-09-12 09:34:54:958
-0.18738,1.32442,9.12157,0.0505,2.27714,9.53847,0.68976,-1.57376,-0.89214,0.25475,-0.07594,-0.33405,12.0,4.312,14.197,-37.663,349.287,-12.813,-0.266,1.97,1001.679,15.5891,48.234737,16.366467,,536.4249329019801,,,64.51613,,0 / 23,5505,2016-09-12 09:34:55:058
-0.33949,1.92557,7.48018,0.07779,2.1224,9.57391,-0.39726,0.04077,-2.09727,-0.14352,-0.08133,-0.04929,12.44731,3.58,14.734,-37.788,349.803,-12.979,-0.247,1.97,1001.679,21.8351,48.234737,16.366467,,536.4249329019801,,,64.51613,,0 / 23,5605,2016-09-12 09:34:55:158
0.71059,2.85048,9.24947,0.1084,2.01929,9.59589,-0.12294,0.86629,-1.05603,-0.19716,-0.03754,0.05939,13.0,3.345,15.123,-38.155,351.766,-12.499,-0.466,1.97,1001.679,21.8351,48.234737,16.366467,,536.4249329019801,,,64.51613,,0 / 23,5705,2016-09-12 09:34:55:258
0.78847,2.48143,10.53931,0.17114,1.99092,9.6009,0.75935,0.55173,0.75776,0.10645,-0.00453,-0.02731,13.44573,2.789,16.071,-37.509,351.059,-11.713,-1.021,1.97,1001.679,21.8351,48.234737,16.366467,,536.4249329019801,,,64.51613,,0 / 23,5805,2016-09-12 09:34:55:358
-0.31525,3.67094,10.27708,0.14184,2.16768,9.56302,-0.08532,0.42327,1.14219,0.30025,0.05028,0.02432,14.45087,3.407,16.484,-38.058,351.553,-12.77,-0.85,1.97,1001.679,21.9111,48.234737,16.366467,,536.4249329019801,,,64.51613,,0 / 23,5904,2016-09-12 09:34:55:457
-0.50839,0.84091,11.02223,-0.01182,2.17535,9.56233,-1.06475,0.12092,0.54181,-0.37878,-0.0824,-0.10039,15.0,2.719,15.913,-38.843,353.061,-12.816,0.071,1.97,1001.687,21.9111,48.234737,16.366467,,536.4249329019801,,,64.51613,,0 / 23,6004,2016-09-12 09:34:55:557
-0.97981,1.68161,7.89519,-0.05695,2.08818,9.58158,-0.07596,-1.76485,1.90868,0.18259,0.20691,-0.03873,16.35361,2.556,17.113,-38.977,353.661,-12.294,0.341,1.97,1001.689,21.9111,48.234737,16.366467,,536.4249329019801,,,64.51613,,0 / 23,6104,2016-09-12 09:34:55:657
0.14439,1.37743,9.82039,0.00393,2.07197,9.58527,-0.49497,-0.44287,-1.07916,-0.07106,-0.42363,-0.0186,18.90268,4.262,17.334,-37.564,352.2,-12.589,0.89,1.97,1001.689,39.7183,48.234737,16.366467,,536.4249329019801,,,64.51613,,0 / 23,6204,2016-09-12 09:34:55:757
0.02945,3.11987,7.44472,0.17132,2.08113,9.58175,-0.0382,-0.6064,0.02817,0.10916,-0.11893,-0.06677,20.90192,2.844,16.35,-38.522,352.801,-12.198,-0.024,1.97,1001.689,39.7183,48.234737,16.366467,,536.4249329019801,,,64.51613,,0 / 23,6305,2016-09-12 09:34:55:858
-0.4865,2.34511,10.28664,0.09057,2.10946,9.57666,-0.67994,0.30605,0.24035,-0.08629,0.01506,-0.26234,23.3521,1.892,17.087,-40.065,353.875,-12.446,-1.011,1.97,1001.689,39.7183,48.234737,16.366467,,536.4249329019801,,,64.51613,,0 / 23,6404,2016-09-12 09:34:55:957
-0.45334,2.71567,9.47646,0.03351,2.22206,9.55153,-0.50946,0.42625,0.04186,0.06091,0.07469,-0.28647,23.3521,2.747,16.273,-38.957,352.013,-12.422,-0.542,1.97,1001.689,23.8733,48.234737,16.366467,,536.4249329019801,,,64.51613,,0 / 23,6505,2016-09-12 09:34:56:058
-0.4666,2.52222,10.29469,-0.04109,2.4458,9.49667,0.17697,1.10316,0.61647,0.21739,-0.11067,-0.24449,26.74417,2.063,14.996,-40.21,355.736,-14.442,0.248,1.97,1001.689,23.8733,48.234737,16.366467,,536.4249329019801,,,64.51613,,0 / 23,6604,2016-09-12 09:34:56:157
0.52135,0.60783,9.92967,-0.11562,2.21434,9.55268,0.57669,-1.67536,1.13937,-0.18123,-0.1689,-0.30127,32.26347,3.912,18.091,-39.714,352.465,-13.05,0.693,1.97,1001.689,23.8733,48.234737,16.366467,,536.4249329019801,,,64.51613,,0 / 23,6705,2016-09-12 09:34:56:258
0.2332,1.41451,9.17299,-0.16568,2.11109,9.57529,0.34259,-0.65134,-1.32405,-0.07274,0.07175,-0.12013,36.70328,2.304,17.871,-40.926,356.788,-13.05,0.693,1.97,1001.689,23.8733,48.234737,16.366467,,536.4249329019801,,,64.51613,,0 / 23,6804,2016-09-12 09:34:56:357
-0.02339,2.12546,8.62402,-0.01362,1.91106,9.61863,0.05105,-0.27952,-0.82342,-0.09923,-0.20663,-0.10406,41.3461,1.596,19.65,-39.607,355.945,-11.237,0.081,1.97,1001.689,41.2842,48.234737,16.366467,,536.4249329019801,,,64.51613,,0 / 23,6904,2016-09-12 09:34:56:457
0.36185,2.35829,8.90559,-0.026,1.89074,9.62262,0.10863,0.35324,-1.01822,-0.04214,0.03389,0.03827,43.0,1.21,19.496,-39.456,358.042,-11.116,0.155,1.97,1001.686,41.2842,48.234737,16.366467,,536.4249329019801,,,64.51613,,0 / 23,7005,2016-09-12 09:34:56:558
-0.21843,2.55659,10.14549,-0.10089,2.04563,9.59039,-0.00219,0.51365,0.46004,0.18813,0.10338,0.07829,43.45096,2.104,19.504,-40.454,356.761,-12.04,0.603,1.97,1001.689,41.2842,48.234737,16.366467,,536.4249329019801,,,64.51613,,0 / 23,7104,2016-09-12 09:34:56:657
-0.94528,3.41647,9.31303,-0.0864,2.2422,9.54649,0.25246,0.33694,0.99609,0.31512,0.01604,0.15074,44.0,1.874,18.46,-39.934,356.486,-13.217,0.519,1.97,1001.689,28.7982,48.234737,16.366467,,536.4249329019801,,,64.51613,,0 / 23,7204,2016-09-12 09:34:56:757
-0.04517,0.61479,12.00176,-0.10196,2.18629,9.5593,-0.51327,-0.58181,1.24725,-0.30661,-0.10075,0.08104,44.0,1.822,18.011,-40.732,357.011,-13.943,0.799,1.97,1001.689,28.7982,48.234737,16.366467,,536.4249329019801,,,64.51613,,0 / 23,7304,2016-09-12 09:34:56:857
-0.31213,1.80263,7.72536,-0.09932,2.0795,9.58312,-0.36173,-1.47821,1.86171,-0.02829,0.12553,0.17592,45.34912,1.956,20.427,-40.596,356.808,-12.242,0.594,1.97,1001.689,28.7982,48.234737,16.366467,,536.4249329019801,,,64.51613,,0 / 23,7404,2016-09-12 09:34:56:957
0.15758,1.83092,9.1064,0.00552,2.05143,9.58968,-0.08238,-0.4995,-0.82717,-0.05482,-0.30188,0.14122,46.55063,3.311,18.002,-40.218,354.998,-12.395,1.015,1.97,1001.689,41.6379,48.234737,16.366467,,536.4249329019801,,,64.51613,,0 / 23,7504,2016-09-12 09:34:57:057
0.03029,2.85403,8.26538,0.0629,2.14741,9.56844,-0.0024,0.56404,-1.77412,0.03363,0.10602,-0.04361,46.45079,1.231,19.312,-40.663,356.864,-12.286,-0.692,1.97,1001.689,41.6379,48.234737,16.366467,,536.4249329019801,,,64.51613,,0 / 23,7605,2016-09-12 09:34:57:158
-0.47221,2.72681,10.07474,-0.01935,2.15857,9.56612,-0.3543,0.67323,-0.94883,-0.01544,0.0855,-0.13574,47.0,2.977,18.616,-40.199,353.183,-12.649,-0.377,1.97,1001.689,41.6379,48.234737,16.366467,,536.4249329019801,,,64.51613,,0 / 23,7704,2016-09-12 09:34:57:257
-0.33099,2.40894,10.83734,-0.07502,2.40898,9.50587,-0.48747,0.16976,1.00639,0.3568,-0.09177,0.06055,47.0,1.059,17.574,-41.167,358.592,-14.22,0.452,1.97,1001.679,38.4093,48.234737,16.366467,,536.4249329019801,,,64.51613,,0 / 23,7804,2016-09-12 09:34:57:357
0.11938,0.5771,13.35933,-0.0978,2.35726,9.51862,-0.03606,0.48069,0.94179,-0.53337,0.22685,0.1499,47.0,1.685,16.286,-40.929,356.442,-13.909,0.589,1.97,1001.679,38.4093,48.234737,16.366467,,536.4249329019801,,,64.51613,,0 / 23,7905,2016-09-12 09:34:57:458
0.82361,1.42299,7.59886,-0.07688,2.29051,9.5351,0.93887,-0.94522,-1.6461,0.26511,-0.25247,-0.32182,47.4512,3.378,19.64,-40.961,354.746,-13.507,0.462,1.97,1001.679,38.4093,48.234737,16.366467,,536.4249329019801,,,64.51613,,0 / 23,8004,2016-09-12 09:34:57:557
-0.09967,1.17699,9.09406,-0.12567,2.21303,9.55286,0.84958,-0.58513,-0.48028,-0.05571,0.13498,-0.16406,48.0,2.089,19.241,-42.448,357.04,-13.042,0.754,1.97,1001.679,38.4093,48.234737,16.366467,,536.4249329019801,,,64.51613,,0 / 23,8104,2016-09-12 09:34:57:657
0.2392,2.58875,7.54135,-0.08666,2.12175,9.57398,0.26105,0.04055,-2.18446,0.00949,-0.06996,-0.16588,48.0,2.495,17.928,-41.53,356.875,-12.7,0.732,1.97,1001.681,39.5291,48.234737,16.366467,,536.4249329019801,,,64.51613,,0 / 23,8204,2016-09-12 09:34:57:757
0.32678,2.61,9.77853,-0.06236,2.07956,9.58342,0.22881,0.44186,-0.94625,-0.1422,-0.07704,-0.07507,48.45029,1.381,18.098,-42.766,358.456,-12.243,0.373,1.97,1001.688,39.5291,48.234737,16.366467,,536.4249329019801,,,64.51613,,0 / 23,8305,2016-09-12 09:34:57:858
-0.29021,2.26598,11.19473,-0.12017,2.33277,9.5244,0.10876,0.16065,0.78461,0.25912,0.09566,0.0746,49.45029,1.529,19.914,-42.409,357.14,-13.761,0.723,1.97,1001.679,39.5291,48.234737,16.366467,,536.4249329019801,,,64.51613,,0 / 23,8405,2016-09-12 09:34:57:958
-0.97803,0.58499,14.21953,-0.23109,2.51663,9.47542,-0.85887,1.03916,0.5473,0.04662,0.15273,0.23779,50.0,2.827,17.564,-42.932,356.095,-14.764,1.415,1.97,1001.679,42.5824,48.234737,16.366467,,536.4249329019801,,,64.51613,,0 / 23,8504,2016-09-12 09:34:58:057
-1.29283,1.85413,7.12721,-0.15632,2.59846,9.45484,-0.93036,-1.93785,4.14647,0.14064,-0.19649,0.04041,50.90241,3.23,16.374,-42.48,355.698,-14.87,1.397,1.97,1001.679,42.5824,48.234737,16.366467,,536.4249329019801,,,64.51613,,0 / 23,8604,2016-09-12 09:34:58:157
0.54439,1.99281,8.6713,-0.06009,2.53895,9.47209,0.16661,-0.52848,-0.80185,-0.26266,-0.19772,0.25188,51.5488,5.028,15.498,-42.824,351.425,-15.983,1.378,1.97,1001.679,42.5824,48.234737,16.366467,,536.4249329019801,,,64.51613,,0 / 23,8705,2016-09-12 09:34:58:258
-0.13397,2.4771,9.08919,0.12441,2.45501,9.49357,-0.05766,-0.156,-0.63567,-0.12761,-0.26889,0.05841,51.4512,4.169,16.643,-42.622,350.48,-14.498,-0.751,1.97,1001.679,38.7011,48.234737,16.366467,,536.4249329019801,,,64.51613,,0 / 23,8804,2016-09-12 09:34:58:357
-0.28403,3.05469,8.55335,0.11095,2.439,9.49786,-0.36116,0.73982,-1.21915,-0.07013,0.0397,-0.07481,52.4512,2.997,17.311,-42.787,352.65,-14.401,-0.669,1.97,1001.689,38.7011,48.234737,16.366467,,536.4249329019801,,,64.51613,,0 / 23,8904,2016-09-12 09:34:58:457
-0.33911,2.69872,10.38168,0.0907,2.42293,9.50219,-0.70283,0.36464,0.11273,-0.01422,-0.02142,-0.03259,53.45066,3.407,17.05,-42.357,352.78,-14.304,-0.547,1.97,1001.689,38.7011,48.234737,16.366467,,536.4249329019801,,,64.51613,,0 / 23,9005,2016-09-12 09:34:58:558
0.32715,2.79564,10.34483,0.17758,2.32473,9.52546,-0.02915,1.21488,0.85584,-0.50171,-0.00261,0.06602,54.45027,1.735,16.629,-43.712,354.494,-14.635,-0.855,1.97,1001.682,40.5737,48.234737,16.366467,,536.4249329019801,,,64.51613,,0 / 23,9105,2016-09-12 09:34:58:658
0.41615,1.18771,9.05006,0.27392,2.01829,9.5928,-0.20987,-1.24342,2.49717,-0.2997,-0.33475,-0.24609,55.8982,2.771,17.931,-43.665,350.929,-11.877,-1.636,1.97,1001.688,40.5737,48.234737,16.366467,,536.4249329019801,,,64.51613,,0 / 23,9204,2016-09-12 09:34:58:757
0.7256,1.20787,9.41045,0.18872,1.90218,9.61855,0.76545,-0.28194,-1.00856,-0.22682,-0.10097,-0.29163,57.44863,2.161,18.941,-42.795,353.982,-11.184,-1.124,1.97,1001.689,40.5737,48.234737,16.366467,,536.4249329019801,,,64.51613,,0 / 23,9305,2016-09-12 09:34:58:858
-0.34134,2.42694,7.40527,0.13169,1.81821,9.63572,-0.44249,0.61857,-1.93472,-0.23593,0.02411,0.15302,58.44411,1.869,19.82,-44.061,354.656,-10.685,-0.783,1.97,1001.689,40.5737,48.234737,16.366467,,536.4249329019801,,,64.51613,,0 / 23,9405,2016-09-12 09:34:58:958
0.84358,2.0161,10.13298,0.1172,1.69196,9.65888,0.13772,0.30985,-0.04032,-0.23593,0.02411,0.15302,59.44321,1.869,19.82,-44.061,354.656,-10.685,-0.783,1.97,1001.689,41.334,48.234737,16.366467,,536.4249329019801,,,64.51613,,0 / 23,9505,2016-09-12 09:34:59:058
-0.2157,2.46976,9.47137,-0.03249,1.84969,9.63058,0.01037,0.52586,-0.37048,0.21431,0.17378,0.09401,60.90335,2.168,20.331,-42.322,356.143,-10.872,0.193,1.97,1001.689,41.334,48.234737,16.366467,,536.4249329019801,,,64.51613,,0 / 23,9604,2016-09-12 09:34:59:157
0.51952,2.96095,11.02255,-0.06558,1.99742,9.60085,0.31565,0.42588,0.37223,0.2184,0.1721,0.26317,62.0,1.875,18.272,-41.238,356.212,-11.752,0.391,1.97,1001.689,41.334,48.234737,16.366467,,536.4249329019801,,,64.51613,,0 / 23,9705,2016-09-12 09:34:59:258
-0.78786,-0.09129,12.73735,-0.25601,1.95892,9.6056,-0.81717,-0.0958,1.15854,-0.07581,0.38936,0.25429,62.90103,4.3,19.275,-42.296,353.918,-11.523,1.527,1.97,1001.689,46.2083,48.234737,16.366467,,536.4249329019801,,,64.51613,,0 / 23,9804,2016-09-12 09:34:59:357
-0.89604,1.41243,7.95413,-0.21583,1.85336,9.62751,-0.72043,-1.97393,2.03607,-0.276,-0.25587,0.06894,64.90302,6.4,19.302,-41.492,349.641,-11.523,1.527,1.97,1001.689,46.2083,48.234737,16.366467,,536.4249329019801,,,64.51613,,0 / 23,9905,2016-09-12 09:34:59:458
-0.20636,1.24974,9.69341,-0.15866,1.63855,9.66749,-0.39854,-0.21827,-0.74348,-0.30272,-0.13159,0.23051,66.45165,6.134,19.417,-43.024,350.014,-10.479,1.766,1.97,1001.689,46.2083,48.234737,16.366467,,536.4249329019801,,,64.51613,,0 / 23,10004,2016-09-12 09:34:59:557
0.57861,1.75369,8.62572,-0.00643,1.64682,9.66738,-0.19337,-0.37311,0.25872,0.00534,-0.26561,0.14539,67.90335,6.351,20.111,-41.878,348.773,-9.618,0.94,1.97,1001.689,44.1802,48.234737,16.366467,,536.4249329019801,,,64.51613,,0 / 23,10104,2016-09-12 09:34:59:657
-0.53213,2.04433,9.87207,0.15285,1.77648,9.64319,-0.55588,0.11592,-0.48182,0.08177,-0.10313,0.11513,69.45096,6.725,18.877,-42.006,343.736,-10.437,-0.908,1.97,1001.689,44.1802,48.234737,16.366467,,536.4249329019801,,,64.51613,,0 / 23,10204,2016-09-12 09:34:59:757
-0.79823,2.21989,10.14912,0.11379,1.98846,9.60226,-0.95184,0.13641,0.52905,0.24384,0.01697,0.06693,70.0,6.181,19.012,-42.651,346.594,-11.699,-0.679,1.97,1001.689,44.1802,48.234737,16.366467,,536.4249329019801,,,64.51613,,0 / 23,10305,2016-09-12 09:34:59:858
-0.2076,2.03183,11.64165,0.15795,2.06711,9.58501,-0.42182,0.97319,0.48444,0.07779,-0.02734,0.31369,70.45098,6.2,18.03,-42.773,345.866,-12.168,-0.944,1.97,1001.689,34.0607,48.234737,16.366467,,536.4249329019801,,,64.51613,,0 / 23,10405,2016-09-12 09:34:59:958
0.4395,0.33971,9.11276,0.25734,2.1319,9.56866,0.20465,-1.85645,0.84838,0.23923,0.02727,0.34808,72.35462,7.849,15.358,-42.241,339.054,-12.05,-1.307,1.97,1001.689,34.0607,48.234737,16.366467,,536.4249329019801,,,64.51613,,0 / 23,10506,2016-09-12 09:35:00:059
-0.78191,0.5461,9.08418,0.24567,2.23725,9.54488,-0.85596,-1.69436,-0.4709,0.18594,0.10439,0.43042,73.5488,8.844,15.17,-41.513,336.879,-12.556,-1.541,1.97,1001.682,34.0607,48.234737,16.366467,,536.4249329019801,,,64.51613,,0 / 23,10604,2016-09-12 09:35:00:157
-1.45061,1.03415,8.84424,0.19525,2.15125,9.56579,-1.35503,-1.38089,-1.31214,-0.09856,0.27484,0.92549,73.45134,7.97,13.744,-42.845,338.832,-13.147,-1.4,1.97,1001.689,34.0607,48.234737,16.366467,,536.4249329019801,,,64.51613,,0 / 23,10704,2016-09-12 09:35:00:257
-0.64476,1.71835,10.32784,0.13891,2.06909,9.58488,-1.65625,-0.5272,-0.31699,-0.07784,0.25832,1.08511,74.44799,11.04,13.84,-40.936,332.363,-12.672,-1.169,1.97,1001.689,34.0792,48.234737,16.366467,,536.4249329019801,,,64.51613,,0 / 23,10804,2016-09-12 09:35:00:357
-0.05966,1.70285,9.49013,0.07701,2.16278,9.56487,-0.58966,-0.52654,0.20294,0.14497,0.32077,1.54272,75.0,13.348,10.159,-41.374,324.623,-12.741,-0.461,1.97,1001.689,34.0792,48.234737,16.366467,,536.4249329019801,,,64.51613,,0 / 23,10904,2016-09-12 09:35:00:457
1.02301,2.0611,10.21106,0.14454,2.22479,9.54986,0.01148,-0.59172,0.30497,0.15948,0.18105,1.62691,74.54891,14.98,8.495,-40.608,317.492,-13.113,-0.867,1.97,1001.689,34.0792,48.234737,16.366467,,536.4249329019801,,,64.51613,,0 / 23,11005,2016-09-12 09:35:00:558
-0.448,1.09862,10.86789,0.09366,2.40855,9.50581,-0.67232,-0.47578,0.17507,0.42311,0.57434,1.5278,73.54914,15.524,6.154,-39.467,312.481,-14.016,-0.892,1.97,1001.679,36.1964,48.234737,16.366467,,536.4249329019801,,,64.51613,,0 / 23,11104,2016-09-12 09:35:00:657
-0.67108,1.66081,9.56931,0.21502,2.37898,9.51129,-0.82145,-0.7387,0.02511,0.1156,0.03709,1.41774,73.0,16.183,1.085,-38.727,301.496,-14.039,-1.295,1.97,1001.679,36.1964,48.234737,16.366467,,536.4249329019801,,,64.51613,,0 / 23,11204,2016-09-12 09:35:00:757
-0.13576,1.68185,9.55371,0.05882,2.32771,9.52621,-0.29774,-0.18626,-1.02486,0.12679,0.72072,1.52994,72.54918,17.632,-1.306,-39.577,294.969,-13.731,-0.354,1.97,1001.679,36.1964,48.234737,16.366467,,536.4249329019801,,,64.51613,,0 / 23,11305,2016-09-12 09:35:00:858
0.58748,2.53723,8.41614,0.01547,2.13996,9.57031,-0.11298,-0.18005,-0.30848,-0.11076,0.25073,0.98462,72.0,17.429,-5.112,-38.574,282.48,-12.809,-0.04,1.97,1001.679,36.554,48.234737,16.366467,,536.4249329019801,,,64.51613,,0 / 23,11405,2016-09-12 09:35:00:958
0.0519,2.66498,8.83821,0.03919,2.13534,9.57127,0.49412,0.52358,-1.42926,0.02116,0.13058,0.84068,72.0,18.172,-6.671,-37.662,274.604,-12.604,-0.093,1.97,1001.679,36.554,48.234737,16.366467,,536.4249329019801,,,64.51613,,0 / 23,11504,2016-09-12 09:35:01:057
-0.17087,2.87355,9.80066,0.105,2.0782,9.58334,0.00859,0.58023,0.27194,-0.02766,0.00499,0.39919,71.54959,18.524,-7.851,-38.47,270.581,-12.216,-0.379,1.97,1001.679,36.554,48.234737,16.366467,,536.4249329019801,,,64.51613,,0 / 23,11604,2016-09-12 09:35:01:157
0.39236,3.29144,9.89215,0.13553,2.20346,9.55493,-0.31636,0.64676,0.134,0.17146,0.00281,0.2422,70.55384,18.481,-8.592,-37.88,269.104,-12.985,-0.813,1.97,1001.679,44.2267,48.234737,16.366467,,536.4249329019801,,,64.51613,,0 / 23,11704,2016-09-12 09:35:01:257
0.10089,0.53973,11.53789,0.02842,2.0435,9.59134,-0.20459,-1.31529,2.91475,-0.22731,0.15131,0.1626,70.44528,17.746,-7.938,-36.784,271.637,-13.064,-0.621,1.97,1001.679,44.2267,48.234737,16.366467,,536.4249329019801,,,64.51613,,0 / 23,11804,2016-09-12 09:35:01:357
0.79776,2.04683,8.78755,0.03323,2.08985,9.58132,0.19842,-0.98317,0.14721,0.13095,-0.0148,-0.05359,71.0,18.224,-7.672,-37.215,270.175,-12.304,-0.199,1.97,1001.679,44.2267,48.234737,16.366467,,536.4249329019801,,,64.51613,,0 / 23,11905,2016-09-12 09:35:01:458
-0.30147,1.44661,8.57513,-0.11891,2.25399,9.54336,0.18603,-0.79879,-0.37194,0.02174,0.03654,0.05296,70.54869,18.999,-9.332,-37.291,269.378,-13.288,0.714,1.97,1001.679,44.2267,48.234737,16.366467,,536.4249329019801,,,64.51613,,0 / 23,12004,2016-09-12 09:35:01:557
0.59457,2.4671,8.30481,0.04954,2.19622,9.55743,0.26565,0.04348,-1.28499,-0.0648,-0.05252,0.20511,70.0,18.289,-9.296,-36.749,268.853,-13.116,0.152,1.97,1001.687,41.5598,48.234737,16.366467,,536.4249329019801,,,64.51613,,0 / 23,12104,2016-09-12 09:35:01:657
0.36774,2.61285,9.29141,0.04881,2.16923,9.5636,0.52908,0.52563,-0.92197,-0.05598,0.09151,0.09868,70.0,17.583,-10.15,-37.178,265.009,-12.78,-0.292,1.97,1001.689,41.5598,48.234737,16.366467,,536.4249329019801,,,64.51613,,0 / 23,12204,2016-09-12 09:35:01:757
0.17117,2.84509,9.93629,-0.07373,2.3565,9.51903,0.19831,0.36559,0.32829,0.16862,0.10088,0.26054,69.54846,18.437,-10.228,-35.844,265.092,-13.149,0.151,1.97,1001.679,41.5598,48.234737,16.366467,,536.4249329019801,,,64.51613,,0 / 23,12304,2016-09-12 09:35:01:857
0.27296,2.99387,10.5269,-0.14283,2.49528,9.4828,0.43096,0.32437,0.74339,0.2746,0.27536,0.25391,69.0,17.949,-12.456,-36.685,261.257,-13.904,0.444,1.97,1001.679,48.666,48.234737,16.366467,,536.4249329019801,,,64.51613,,0 / 23,12405,2016-09-12 09:35:01:958
-0.57413,1.14406,10.38863,-0.32241,2.49869,9.4775,-0.25812,-1.27291,1.07239,0.15727,0.24379,0.07533,69.0,17.227,-11.015,-35.464,264.3,-14.761,1.948,1.97,1001.679,48.666,48.234737,16.366467,,536.4249329019801,,,64.51613,,0 / 23,12504,2016-09-12 09:35:02:057
-1.03165,2.03357,7.89607,-0.43365,2.55932,9.45686,-0.51966,-0.64162,-1.20092,0.15727,0.24379,0.07533,69.0,17.227,-11.015,-35.464,264.3,-14.761,1.948,1.97,1001.679,48.666,48.234737,16.366467,,536.4249329019801,,,64.51613,,0 / 23,12604,2016-09-12 09:35:02:157
-0.11844,2.12679,8.28764,-0.29341,2.37848,9.50932,0.03977,-0.62519,0.0808,-0.28757,-0.14262,0.18962,69.90296,19.415,-13.292,-34.785,257.457,-14.036,1.767,1.97,1001.679,46.5559,48.234737,16.366467,,536.4249329019801,,,64.51613,,0 / 23,12705,2016-09-12 09:35:02:258
-0.23695,2.37068,8.25453,-0.21484,2.39935,9.50617,0.16862,0.01166,-1.17402,0.0403,-0.17137,0.0752,71.446,17.177,-12.569,-34.686,255.89,-14.036,1.767,1.97,1001.679,46.5559,48.234737,16.366467,,536.4249329019801,,,64.51613,,0 / 23,12804,2016-09-12 09:35:02:357
-0.34895,2.73984,9.91023,-0.15605,2.34537,9.52078,0.02456,-0.05768,-0.45928,-0.08578,-0.06924,-0.02797,72.44403,16.982,-12.256,-35.242,259.274,-14.009,1.085,1.97,1001.681,46.5559,48.234737,16.366467,,536.4249329019801,,,64.51613,,0 / 23,12904,2016-09-12 09:35:02:457
-0.57216,2.51559,10.52673,-0.16878,2.39132,9.50913,-0.23476,0.40372,0.45586,0.04288,-0.01094,-0.07228,73.45073,17.52,-12.154,-35.765,260.31,-13.837,0.939,1.97,1001.689,46.5559,48.234737,16.366467,,536.4249329019801,,,64.51613,,0 / 23,13005,2016-09-12 09:35:02:558
0.73563,0.69484,12.3719,-0.17809,2.46008,9.4914,-0.00208,0.58453,0.49181,0.01915,0.00854,0.06084,74.4509,17.998,-13.141,-35.823,259.303,-14.826,1.114,1.97,1001.689,45.8205,48.234737,16.366467,,536.4249329019801,,,64.51613,,0 / 23,13104,2016-09-12 09:35:02:657
0.85454,1.23322,8.68362,-0.03398,2.38338,9.51256,1.00779,-1.78453,1.3997,0.12929,-0.16966,-0.26259,75.0,17.61,-12.119,-36.557,261.62,-14.066,0.205,1.97,1001.689,45.8205,48.234737,16.366467,,536.4249329019801,,,64.51613,,0 / 23,13204,2016-09-12 09:35:02:757
0.11256,0.69962,10.01703,-0.04266,2.35292,9.5201,0.67447,-0.8935,-0.46544,-0.01637,-0.0367,-0.28206,74.54962,17.459,-10.945,-36.737,264.369,-14.066,0.205,1.97,1001.689,45.8205,48.234737,16.366467,,536.4249329019801,,,64.51613,,0 / 23,13305,2016-09-12 09:35:02:858
-0.60109,1.87119,7.61313,-0.12681,2.22551,9.54994,-0.35957,-0.46902,-1.58575,-0.10597,-0.01152,-0.13312,73.54979,17.133,-10.814,-36.795,262.184,-13.117,0.761,1.97,1001.689,45.6326,48.234737,16.366467,,536.4249329019801,,,64.51613,,0 / 23,13405,2016-09-12 09:35:02:958
0.40891,2.19321,9.70738,-0.10712,2.11952,9.57427,-0.0103,-0.29477,0.03059,-0.14917,0.00677,0.11201,73.0,17.055,-9.946,-36.293,264.747,-13.117,0.761,1.97,1001.689,45.6326,48.234737,16.366467,,536.4249329019801,,,64.51613,,0 / 23,13504,2016-09-12 09:35:03:057
0.29442,2.07568,10.09903,-0.07464,2.22729,9.55008,0.53813,-0.07757,0.35785,0.22966,0.06207,0.19452,72.09732,18.115,-11.256,-38.013,263.394,-13.128,0.448,1.97,1001.689,45.6326,48.234737,16.366467,,536.4249329019801,,,64.51613,,0 / 23,13604,2016-09-12 09:35:03:157
0.25975,2.51619,10.64591,-0.08178,2.37322,9.51481,0.02958,-0.39633,0.46348,0.22855,0.06482,0.31042,71.0,17.149,-11.183,-36.9,264.236,-14.005,0.492,1.97,1001.689,44.6426,48.234737,16.366467,,536.4249329019801,,,64.51613,,0 / 23,13704,2016-09-12 09:35:03:257
-0.60461,1.51122,10.78873,-0.1932,2.48304,9.48512,0.28987,-0.14445,0.44156,-0.1666,-0.02094,0.14696,70.54836,17.871,-12.991,-36.003,258.953,-14.667,1.167,1.97,1001.689,44.6426,48.234737,16.366467,,536.4249329019801,,,64.51613,,0 / 23,13806,2016-09-12 09:35:03:359
-0.9789,2.4147,6.92323,-0.23206,2.5637,9.46277,-1.23729,-0.94035,-0.50947,-0.05681,0.04817,0.35101,69.5486,18.213,-13.905,-36.02,256.039,-14.737,1.188,1.97,1001.689,44.6426,48.234737,16.366467,,536.4249329019801,,,64.51613,,0 / 23,13905,2016-09-12 09:35:03:458
-0.06505,0.6909,10.98702,-0.13343,2.40553,9.5061,-0.87972,-0.2109,-2.18378,-0.43219,-0.17838,0.42973,68.09928,18.405,-13.89,-35.664,255.021,-14.199,0.804,1.97,1001.689,43.8276,48.234737,16.366467,,536.4249329019801,,,64.51613,,0 / 23,14004,2016-09-12 09:35:03:557
-0.9044,2.65399,9.72458,0.01678,2.16348,9.56501,-0.80138,0.37943,-0.07732,-0.17737,-0.15607,0.0843,65.64768,16.028,-12.192,-37.291,257.546,-12.745,-0.101,1.97,1001.689,43.8276,48.234737,16.366467,,536.4249329019801,,,64.51613,,0 / 23,14105,2016-09-12 09:35:03:658
0.02946,1.99745,9.20886,-0.02938,2.18913,9.55914,-0.44818,0.17615,-0.28572,0.03,0.10927,-0.02126,63.10041,17.21,-13.736,-37.433,252.341,-12.899,0.176,1.97,1001.689,43.8276,48.234737,16.366467,,536.4249329019801,,,64.51613,,0 / 23,14204,2016-09-12 09:35:03:757
0.25592,2.35349,9.42368,-0.00512,2.38564,9.51205,0.39721,-0.55281,0.27485,0.19737,-0.09953,-0.18361,61.55113,16.356,-12.563,-37.344,257.282,-14.079,0.031,1.97,1001.689,43.5365,48.234737,16.366467,,536.4249329019801,,,64.51613,,0 / 23,14305,2016-09-12 09:35:03:858
-1.15855,1.79852,10.75787,3.2E-4,2.4484,9.49609,-0.01448,0.04999,-0.36377,0.23132,-0.01451,-0.32713,60.5488,17.45,-14.0,-36.514,255.746,-14.458,-0.002,1.97,1001.689,43.5365,48.234737,16.366467,,536.4249329019801,,,64.51613,,0 / 23,14404,2016-09-12 09:35:03:957
0.42186,1.85341,8.78717,0.0244,2.60344,9.45473,-0.01635,-1.00093,-0.15897,0.25203,-0.03758,-0.13777,54.65991,17.912,-14.041,-37.027,258.482,-15.395,-0.148,1.97,1001.692,43.5365,48.234737,16.366467,,536.4249329019801,,,64.51613,,0 / 23,14505,2016-09-12 09:35:04:058
0.44124,2.14241,9.03528,-0.04259,2.68576,9.43161,-0.00332,-0.62019,-0.11305,0.13084,0.0249,-0.10379,39.57182,17.94,-13.596,-36.655,259.487,-15.895,0.259,1.97,1001.699,43.5365,48.234737,16.366467,,536.4249329019801,,,64.51613,,0 / 23,14605,2016-09-12 09:35:04:158
0.76598,1.6521,9.80917,-0.12707,2.65836,9.43861,0.85713,-0.59121,0.28462,-0.06706,0.00296,-0.12904,29.45137,18.245,-14.668,-36.467,255.858,-16.007,0.603,0.0,1001.699,47.3305,48.234737,16.366467,,536.4249329019801,,,64.51613,,0 / 23,14704,2016-09-12 09:35:04:257
0.03557,2.00146,9.75278,-0.19229,2.53361,9.47176,0.2034,-0.49117,0.06135,-0.0889,0.01756,-0.00923,27.74742,18.428,-13.38,-34.991,259.561,-15.334,1.111,0.0,1001.699,47.3305,48.234737,16.366467,,536.4249329019801,,,64.51613,,0 / 23,14805,2016-09-12 09:35:04:358
-0.31097,1.98904,7.31604,-0.2434,2.53281,9.4708,-0.0612,-0.56218,0.43079,0.01633,0.11098,0.09607,26.35072,18.971,-13.741,-35.168,256.516,-14.973,1.163,0.0,1001.699,47.3305,48.234737,16.366467,,536.4249329019801,,,64.51613,,0 / 23,14905,2016-09-12 09:35:04:458
-0.21764,1.61772,10.23421,-0.29783,2.32718,9.52187,0.43397,-0.69138,1.21405,-0.12085,0.01675,0.13097,28.45104,19.107,-12.723,-35.701,258.953,-14.415,1.847,0.0,1001.699,50.381,48.234737,16.366467,,536.4249329019801,,,64.51613,,0 / 23,15004,2016-09-12 09:35:04:557