ACCELEROMETER X (m/s²),ACCELEROMETER Y (m/s²),ACCELEROMETER Z (m/s²),GRAVITY X (m/s²),GRAVITY Y (m/s²),GRAVITY Z (m/s²),LINEAR ACCELERATION X (m/s²),LINEAR ACCELERATION Y (m/s²),LINEAR ACCELERATION Z (m/s²),GYROSCOPE X (rad/s),GYROSCOPE Y (rad/s),GYROSCOPE Z (rad/s),LIGHT (lux),MAGNETIC FIELD X (μT),MAGNETIC FIELD Y (μT),MAGNETIC FIELD Z (μT),ORIENTATION Z (azimuth °),ORIENTATION X (pitch °),ORIENTATION Y (roll °),PROXIMITY (i),ATMOSPHERIC PRESSURE (hPa),SOUND LEVEL (dB),LOCATION Latitude : ,LOCATION Longitude : ,LOCATION Altitude ( m),LOCATION Altitude-google ( m),LOCATION Altitude-atmospheric pressure ( m),LOCATION Speed ( Kmh),LOCATION Accuracy ( m),LOCATION ORIENTATION (°),Satellites in range,Time since start in ms ,YYYY-MO-DD HH-MI-SS_SSS
0.46307,1.99681,8.40511,0.29284,1.2535,9.7218,0.57651,0.07494,-0.02299,0.20578,0.01874,-0.2202,14.0,-19.449,4.022,-41.908,62.048,-7.344,-1.725,1.97,1001.689,44.7192,48.234737,16.366467,,536.4249329019801,,,64.51613,,0 / 23,4,2016-09-12 09:35:21:210
0.81238,2.45027,9.85204,0.10018,1.2343,9.72815,0.44766,1.12913,0.24636,-0.14082,0.29741,0.01852,14.45041,-19.948,1.881,-41.753,68.367,-7.344,-1.725,1.97,1001.689,44.7192,48.234737,16.366467,,536.4249329019801,,,64.51613,,0 / 23,104,2016-09-12 09:35:21:310
0.17467,2.1893,9.26878,0.11615,1.18314,9.73433,0.527,0.9182,-0.35589,-0.13972,0.01178,-0.05606,15.0,-19.386,3.384,-42.583,65.612,-7.231,-0.59,1.97,1001.689,44.7192,48.234737,16.366467,,536.4249329019801,,,64.51613,,0 / 23,204,2016-09-12 09:35:21:410
0.77762,1.95111,10.34303,0.12262,1.17984,9.73465,0.35079,1.08778,-0.26675,-0.01665,0.02844,-0.04173,15.45033,-19.269,3.601,-43.074,63.574,-6.91,-0.722,1.97,1001.691,28.1514,48.234737,16.366467,,536.4249329019801,,,64.51613,,0 / 23,305,2016-09-12 09:35:21:511
-0.06866,1.85878,9.14372,0.16488,1.20846,9.73051,0.53694,0.68369,0.61206,-0.02025,-0.04395,-0.03033,16.0,-19.324,3.845,-42.97,63.574,-6.91,-0.722,1.97,1001.699,28.1514,48.234737,16.366467,,536.4249329019801,,,64.51613,,0 / 23,404,2016-09-12 09:35:21:610
-0.55762,2.16795,10.06873,0.10192,1.48863,9.69247,0.2022,0.4895,0.41354,0.25237,0.09998,0.00351,16.44907,-21.098,2.081,-42.616,68.853,-7.814,-0.868,1.97,1001.699,28.1514,48.234737,16.366467,,536.4249329019801,,,64.51613,,0 / 23,504,2016-09-12 09:35:21:710
0.02916,1.98788,8.63855,0.05276,1.6914,9.65954,-0.6176,0.46329,0.55866,0.26994,0.07005,0.13235,17.0,-20.209,2.661,-42.395,64.395,-8.731,-0.602,1.97,1001.699,35.9629,48.234737,16.366467,,536.4249329019801,,,64.51613,,0 / 23,604,2016-09-12 09:35:21:810
-1.02281,0.69695,9.3123,0.01499,1.62855,9.67047,-0.30613,-1.1757,1.5112,-0.12144,0.06047,0.16541,17.0,-19.682,1.036,-41.995,68.218,-9.559,-0.089,1.97,1001.699,35.9629,48.234737,16.366467,,536.4249329019801,,,64.51613,,0 / 23,704,2016-09-12 09:35:21:910
-1.25194,1.27898,8.67897,-0.09457,1.72631,9.65305,-1.34307,-0.30325,-2.24753,0.20837,0.20811,0.2251,17.44907,-17.767,2.211,-42.355,63.123,-10.139,0.561,1.97,1001.699,35.9629,48.234737,16.366467,,536.4249329019801,,,64.51613,,0 / 23,804,2016-09-12 09:35:22:010
0.10902,1.65965,9.25211,-0.0632,1.50027,9.69101,-0.06525,-0.09478,0.22489,-0.13109,0.03795,0.29102,18.0,-17.453,2.478,-41.997,64.108,-8.8,0.374,1.97,1001.699,39.0376,48.234737,16.366467,,536.4249329019801,,,64.51613,,0 / 23,904,2016-09-12 09:35:22:110
-0.88268,1.9437,8.81123,-0.15382,1.58925,9.6758,-0.54707,0.33592,-0.71631,0.07248,0.0309,0.13202,18.0,-17.461,3.329,-42.642,61.173,-8.996,0.72,1.97,1001.699,39.0376,48.234737,16.366467,,536.4249329019801,,,64.51613,,0 / 23,1004,2016-09-12 09:35:22:210
-0.67383,1.75403,10.34427,-0.15467,1.66624,9.66282,-0.29395,0.03033,-0.19021,0.13527,0.03734,0.12463,18.0,-17.503,3.308,-42.683,62.123,-9.326,0.911,1.97,1001.699,39.0376,48.234737,16.366467,,536.4249329019801,,,64.51613,,0 / 23,1104,2016-09-12 09:35:22:310
-0.65009,1.69379,10.55162,-0.21036,1.91918,9.61472,-0.06188,0.20374,0.65522,0.02217,0.08954,0.21001,18.0,-17.242,2.205,-42.169,60.572,-11.286,1.253,1.97,1001.699,16.8623,48.234737,16.366467,,536.4249329019801,,,64.51613,,0 / 23,1204,2016-09-12 09:35:22:410
0.37965,0.60905,9.59471,-0.1724,1.91466,9.61638,-0.63887,-0.78264,1.81652,0.08711,-0.123,0.16621,18.0,-16.484,2.336,-42.725,58.679,-11.286,1.253,1.97,1001.699,16.8623,48.234737,16.366467,,536.4249329019801,,,64.51613,,0 / 23,1304,2016-09-12 09:35:22:510
0.07092,1.24353,8.85574,-0.05808,2.1281,9.57278,0.08374,-0.91552,-0.6994,0.02002,0.12917,0.04843,18.0,-17.815,1.91,-40.981,60.191,-11.991,0.341,1.97,1001.699,16.8623,48.234737,16.366467,,536.4249329019801,,,64.51613,,0 / 23,1404,2016-09-12 09:35:22:610
-1.42236,1.19856,9.43578,-0.08301,2.05713,9.5881,-1.30681,-1.23743,0.11512,-0.12004,-0.0927,0.12325,18.0,-17.291,1.563,-40.761,58.765,-12.109,0.496,1.97,1001.699,16.8623,48.234737,16.366467,,536.4249329019801,,,64.51613,,0 / 23,1504,2016-09-12 09:35:22:710
-1.78316,1.70261,8.27831,0.00862,2.0456,9.59093,-1.75172,-0.34796,-1.17876,-0.12032,-0.00998,0.97931,17.55083,-17.905,3.217,-40.767,57.396,-12.04,-0.052,1.97,1001.699,15.6889,48.234737,16.366467,,536.4249329019801,,,64.51613,,0 / 23,1604,2016-09-12 09:35:22:810
-1.73282,1.09583,10.01291,0.14199,1.97571,9.60452,-1.31364,-0.3721,-0.26446,-0.12032,-0.00998,0.97931,17.0,-17.905,3.217,-40.767,57.396,-12.04,-0.052,1.97,1001.699,15.6889,48.234737,16.366467,,536.4249329019801,,,64.51613,,0 / 23,1704,2016-09-12 09:35:22:910
-0.28947,1.02634,9.57733,0.47621,2.12808,9.56111,-2.00886,-2.25206,1.99325,0.24925,-0.07588,2.06937,16.55457,-18.202,5.324,-40.775,51.032,-11.638,-2.16,1.97,1001.7,15.6889,48.234737,16.366467,,536.4249329019801,,,64.51613,,0 / 23,1804,2016-09-12 09:35:23:010
-1.56673,0.82079,9.93243,0.69587,2.11274,9.55105,-2.19417,-1.15921,0.11325,0.06293,0.19339,2.39319,16.0,-15.907,7.751,-42.502,36.565,-12.441,-4.167,1.97,1001.71,15.4981,48.234737,16.366467,,536.4249329019801,,,64.51613,,0 / 23,1904,2016-09-12 09:35:23:110
1.40991,0.99567,7.43527,0.68552,1.97858,9.58048,-1.379,-1.13212,0.81709,-7.6E-4,0.46834,2.49586,16.0,-12.399,10.309,-41.612,25.166,-12.441,-4.167,1.97,1001.71,15.4981,48.234737,16.366467,,536.4249329019801,,,64.51613,,0 / 23,2004,2016-09-12 09:35:23:210
-0.01816,0.87485,8.33781,0.61651,1.10717,9.72443,0.85643,-0.16541,-1.02823,-0.76613,0.34686,1.5844,16.0,-8.522,13.556,-43.533,18.127,-6.483,-3.628,1.97,1001.71,15.4981,48.234737,16.366467,,536.4249329019801,,,64.51613,,0 / 23,2104,2016-09-12 09:35:23:310
0.81467,1.53801,9.11777,0.55942,0.76251,9.76094,1.29063,0.10033,2.74651,-0.57785,0.2905,1.39786,16.0,-6.625,15.793,-42.615,13.19,-4.459,-3.28,1.97,1001.71,15.4774,48.234737,16.366467,,536.4249329019801,,,64.51613,,0 / 23,2204,2016-09-12 09:35:23:410
1.32689,1.7494,9.75472,0.75903,0.59337,9.75921,0.75097,1.1247,0.37821,-0.09424,-0.15779,0.68724,16.0,-4.317,17.348,-41.418,3.863,-3.769,-3.725,1.97,1001.71,15.4774,48.234737,16.366467,,536.4249329019801,,,64.51613,,0 / 23,2304,2016-09-12 09:35:23:510
1.05164,0.53479,10.5445,0.89008,0.66394,9.74358,0.08595,1.01392,0.32838,0.11702,-0.17471,0.40733,16.0,-2.998,18.657,-41.214,358.044,-3.882,-5.219,1.97,1001.71,15.4774,48.234737,16.366467,,536.4249329019801,,,64.51613,,0 / 23,2405,2016-09-12 09:35:23:611
0.37059,-0.65221,11.88818,1.14124,0.6234,9.72005,-0.55974,-1.15899,2.52002,-0.00302,-0.24042,-0.05478,15.54955,-4.797,17.827,-41.074,0.514,-3.645,-6.697,1.97,1001.71,15.4656,48.234737,16.366467,,536.4249329019801,,,64.51613,,0 / 23,2504,2016-09-12 09:35:23:710
0.43692,1.53458,6.75363,1.26092,0.83639,9.68922,-1.22865,-1.1425,0.63505,0.40076,-0.20107,-0.23125,15.0,-5.154,18.535,-41.479,0.491,-3.645,-6.697,1.97,1001.71,15.4656,48.234737,16.366467,,536.4249329019801,,,64.51613,,0 / 23,2604,2016-09-12 09:35:23:810
-0.3447,0.35484,9.79523,1.12357,0.87735,9.70249,-0.90101,0.28575,-1.58857,-0.20831,0.00497,0.32433,14.5497,-4.567,15.714,-40.874,0.112,-5.858,-6.898,1.97,1001.699,15.4656,48.234737,16.366467,,536.4249329019801,,,64.51613,,0 / 23,2704,2016-09-12 09:35:23:910
1.81755,1.56686,8.61932,1.25004,0.79526,9.69409,-1.31684,-0.39087,0.39085,0.02629,-0.16383,0.13155,14.0,-5.591,18.011,-40.393,2.254,-4.651,-7.348,1.97,1001.699,15.4656,48.234737,16.366467,,536.4249329019801,,,64.51613,,0 / 23,2804,2016-09-12 09:35:24:010
1.53264,1.89934,9.12039,1.42989,0.83671,9.6657,0.50696,0.85593,-0.85281,0.00861,0.01144,-0.0484,14.0,-4.5,17.282,-40.43,354.679,-4.894,-8.415,1.97,1001.699,15.6463,48.234737,16.366467,,536.4249329019801,,,64.51613,,0 / 23,2904,2016-09-12 09:35:24:110
1.58943,1.64104,9.98425,1.3673,1.13733,9.64403,0.17799,0.53843,0.4479,0.3427,0.11127,0.12732,13.54846,-5.028,17.331,-41.075,357.874,-6.66,-8.069,1.97,1001.69,15.6463,48.234737,16.366467,,536.4249329019801,,,64.51613,,0 / 23,3005,2016-09-12 09:35:24:211
1.22549,1.46385,9.81174,1.287,1.31484,9.63251,0.18014,0.38788,0.52263,0.25774,0.17841,0.14983,13.0,-4.62,16.47,-41.092,358.731,-7.705,-7.61,1.97,1001.689,15.6463,48.234737,16.366467,,536.4249329019801,,,64.51613,,0 / 23,3104,2016-09-12 09:35:24:310
-0.65953,-0.12654,10.63147,1.00382,0.97839,9.70595,-1.70745,-1.17175,1.22411,-0.64157,0.18979,0.1683,13.0,-4.092,15.585,-39.935,357.663,-6.871,-6.914,1.97,1001.689,20.1639,48.234737,16.366467,,536.4249329019801,,,64.51613,,0 / 23,3204,2016-09-12 09:35:24:410
0.37651,0.08754,10.01695,0.83361,0.86411,9.73287,-1.00521,-0.70173,-0.32476,0.1273,0.31511,0.38203,13.0,-2.992,16.275,-40.189,356.751,-5.726,-5.905,1.97,1001.69,20.1639,48.234737,16.366467,,536.4249329019801,,,64.51613,,0 / 23,3304,2016-09-12 09:35:24:510
1.17734,0.96777,9.1207,0.58446,0.70732,9.76363,0.95349,-0.21545,-0.20307,-0.05537,0.23491,0.20688,13.0,-0.252,17.116,-38.899,352.046,-4.005,-4.042,1.97,1001.689,20.1639,48.234737,16.366467,,536.4249329019801,,,64.51613,,0 / 23,3405,2016-09-12 09:35:24:611
0.39484,1.85703,9.21457,0.53852,0.8025,9.75891,0.53692,0.30042,-0.87096,0.16521,0.12032,-0.14528,13.0,0.34,18.065,-38.667,354.192,-4.694,-3.159,1.97,1001.689,15.8372,48.234737,16.366467,,536.4249329019801,,,64.51613,,0 / 23,3504,2016-09-12 09:35:24:710
0.7012,1.56427,10.63001,0.66756,1.10448,9.72136,-0.9385,0.72215,0.69609,0.23761,-0.18677,0.03279,13.0,0.259,15.84,-39.02,352.495,-6.467,-3.928,1.97,1001.689,15.8372,48.234737,16.366467,,536.4249329019801,,,64.51613,,0 / 23,3605,2016-09-12 09:35:24:811
0.2193,1.26009,8.95248,0.67807,1.3512,9.68942,0.04962,0.15723,0.93434,0.215,-0.05908,-0.33325,13.0,-0.674,15.654,-38.193,355.51,-7.92,-4.003,1.97,1001.693,15.8372,48.234737,16.366467,,536.4249329019801,,,64.51613,,0 / 23,3704,2016-09-12 09:35:24:910
1.09906,-0.37598,10.96349,0.60077,1.40278,9.68719,0.03149,-1.46356,1.09891,-0.047,0.08098,-0.19179,13.0,-0.409,14.294,-38.878,352.485,-8.734,-3.83,1.97,1001.696,31.2835,48.234737,16.366467,,536.4249329019801,,,64.51613,,0 / 23,3804,2016-09-12 09:35:25:010
0.51627,0.44643,8.07811,0.53099,1.22298,9.71559,0.099,-0.72989,-1.47008,-0.09976,0.08849,-0.13985,12.5488,-0.795,15.157,-37.877,356.184,-7.577,-3.507,1.97,1001.689,31.2835,48.234737,16.366467,,536.4249329019801,,,64.51613,,0 / 23,3905,2016-09-12 09:35:25:111
-0.01765,0.78981,8.81229,0.51475,1.01049,9.74086,-0.60682,-0.54572,-1.66053,-0.33723,-0.00523,-0.10271,12.0,0.179,15.779,-37.447,354.37,-7.164,-3.128,1.97,1001.689,31.2835,48.234737,16.366467,,536.4249329019801,,,64.51613,,0 / 23,4005,2016-09-12 09:35:25:211
0.65077,1.38641,10.07626,0.53244,0.81818,9.75795,-0.1465,0.57048,-0.92617,-0.1042,-0.01556,-0.00475,12.0,-0.684,18.214,-37.799,357.166,-5.093,-3.097,1.97,1001.689,31.2835,48.234737,16.366467,,536.4249329019801,,,64.51613,,0 / 23,4105,2016-09-12 09:35:25:311
0.3407,1.23247,10.05736,0.56299,0.86469,9.75222,0.1045,0.51663,0.23476,0.11082,-0.05246,-0.02972,12.0,-0.574,18.063,-36.537,357.23,-4.786,-3.123,1.97,1001.689,23.8842,48.234737,16.366467,,536.4249329019801,,,64.51613,,0 / 23,4205,2016-09-12 09:35:25:411
-0.12556,1.85854,9.73674,0.54075,1.16491,9.72219,-0.04123,-0.08489,1.07951,0.38124,8.7E-4,0.05498,12.0,-0.894,18.416,-37.248,357.063,-5.749,-3.265,1.97,1001.689,23.8842,48.234737,16.366467,,536.4249329019801,,,64.51613,,0 / 23,4305,2016-09-12 09:35:25:511
0.34738,-0.64871,13.89615,0.55952,1.05557,9.73361,-0.45156,0.73199,0.38947,-0.56107,-0.02419,0.21034,12.0,0.053,18.095,-36.768,354.726,-6.822,-3.184,1.97,1001.689,23.8842,48.234737,16.366467,,536.4249329019801,,,64.51613,,0 / 23,4405,2016-09-12 09:35:25:611
-0.33717,0.60936,8.82695,0.04239,1.098,9.7449,-0.95458,-0.2986,-2.56668,-0.14482,0.42116,0.39944,12.0,-0.006,18.8,-37.004,359.6,-6.429,-0.249,1.97,1001.698,26.8978,48.234737,16.366467,,536.4249329019801,,,64.51613,,0 / 23,4504,2016-09-12 09:35:25:710
0.7012,0.62651,8.74318,0.3561,0.97207,9.75186,0.11149,-0.38206,0.45685,0.23827,-0.21954,0.1389,12.0,1.424,19.296,-35.97,356.399,-5.574,-0.652,1.97,1001.689,26.8978,48.234737,16.366467,,536.4249329019801,,,64.51613,,0 / 23,4604,2016-09-12 09:35:25:810
0.41536,1.70715,8.30647,0.47521,1.05697,9.73794,0.22808,0.20442,-2.13815,0.23827,-0.21954,0.1389,12.0,1.424,19.296,-35.97,356.399,-5.574,-0.652,1.97,1001.689,26.8978,48.234737,16.366467,,536.4249329019801,,,64.51613,,0 / 23,4705,2016-09-12 09:35:25:911
-0.27875,1.62521,10.30103,0.27578,1.06252,9.74502,-0.32391,0.45176,0.69621,-0.10252,0.22466,-0.23396,12.4474,0.868,18.869,-36.514,353.313,-6.065,-2.592,1.97,1001.699,19.5213,48.234737,16.366467,,536.4249329019801,,,64.51613,,0 / 23,4804,2016-09-12 09:35:26:010
0.84203,1.75703,9.42552,0.24095,1.22365,9.72703,-0.46207,-0.16821,1.22108,0.18161,0.20074,-0.16347,13.0,1.256,20.122,-37.392,355.104,-6.22,-1.621,1.97,1001.699,19.5213,48.234737,16.366467,,536.4249329019801,,,64.51613,,0 / 23,4905,2016-09-12 09:35:26:111
2.11258,-0.73036,14.56786,0.29563,1.00799,9.75023,-0.19107,-1.09426,1.90718,-0.50479,0.06808,-0.07224,13.0,0.539,20.079,-36.652,354.885,-5.9,-1.737,1.97,1001.699,19.5213,48.234737,16.366467,,536.4249329019801,,,64.51613,,0 / 23,5005,2016-09-12 09:35:26:211
0.42644,-0.1832,8.21526,0.37757,1.05453,9.74247,0.91076,-1.49184,1.67249,0.25655,-0.25134,-0.45592,13.44998,0.565,21.072,-36.23,355.139,-5.9,-1.737,1.97,1001.699,21.739,48.234737,16.366467,,536.4249329019801,,,64.51613,,0 / 23,5104,2016-09-12 09:35:26:310
-0.24738,0.88895,6.8882,0.27103,0.98634,9.75316,0.17251,-1.02583,-0.40166,7.6E-4,0.06299,-0.39699,14.44998,-0.65,21.858,-37.259,359.937,-5.772,-1.592,1.97,1001.696,21.739,48.234737,16.366467,,536.4249329019801,,,64.51613,,0 / 23,5204,2016-09-12 09:35:26:410
-0.01738,1.88101,8.01784,0.3831,0.96771,9.75126,-0.58708,0.93988,-1.96756,-0.04303,-0.20129,-0.16626,15.0,-0.319,21.388,-36.818,356.613,-5.663,-2.25,1.97,1001.689,21.739,48.234737,16.366467,,536.4249329019801,,,64.51613,,0 / 23,5304,2016-09-12 09:35:26:510
0.80823,1.08557,10.11484,0.55224,0.83016,9.75583,0.5538,0.29286,1.08335,-0.06081,-0.071,0.07181,15.90308,-2.058,22.6,-37.343,359.793,-4.856,-3.24,1.97,1001.694,21.739,48.234737,16.366467,,536.4249329019801,,,64.51613,,0 / 23,5404,2016-09-12 09:35:26:610
0.80525,0.9386,12.06485,0.48584,0.9151,9.75177,0.03687,-0.01038,0.78697,0.1384,0.10216,-0.01497,17.90186,-2.065,23.026,-36.653,359.793,-4.856,-3.24,1.97,1001.699,20.8118,48.234737,16.366467,,536.4249329019801,,,64.51613,,0 / 23,5504,2016-09-12 09:35:26:710
-0.38095,-0.69087,13.28476,0.24514,1.0214,9.75023,-1.74673,-0.0728,0.54115,-0.1208,0.01244,0.15852,19.90091,-0.932,22.447,-36.53,359.648,-6.2,-1.794,1.97,1001.699,20.8118,48.234737,16.366467,,536.4249329019801,,,64.51613,,0 / 23,5604,2016-09-12 09:35:26:810
0.56377,0.27037,7.94429,0.04269,1.1765,9.73573,-0.73859,-1.1085,-1.75971,0.11613,0.12611,0.56984,23.25281,0.482,22.542,-37.038,358.661,-6.08,-0.97,1.97,1001.693,20.8118,48.234737,16.366467,,536.4249329019801,,,64.51613,,0 / 23,5704,2016-09-12 09:35:26:910
0.73091,0.86528,8.54268,0.21648,1.07371,9.74529,0.42139,-0.80476,-1.55157,-0.1321,-0.26083,0.35112,26.9018,0.642,22.495,-36.763,357.468,-6.89,-0.251,1.97,1001.697,43.1807,48.234737,16.366467,,536.4249329019801,,,64.51613,,0 / 23,5805,2016-09-12 09:35:27:011
0.32661,1.87845,9.30243,0.46765,1.00098,9.74422,1.13375,0.51585,-1.88005,-0.06624,-0.0912,-0.1274,30.33179,1.083,22.357,-38.147,353.75,-5.858,-2.748,1.97,1001.691,43.1807,48.234737,16.366467,,536.4249329019801,,,64.51613,,0 / 23,5905,2016-09-12 09:35:27:111
0.69966,1.73706,9.85281,0.42297,1.04067,9.7421,0.20524,0.80213,-0.82938,0.0976,0.14137,-0.28484,37.69696,0.36,23.634,-37.311,356.329,-5.858,-2.748,1.97,1001.689,43.1807,48.234737,16.366467,,536.4249329019801,,,64.51613,,0 / 23,6004,2016-09-12 09:35:27:210
1.13551,2.13655,11.6526,0.26148,1.22979,9.72572,0.36802,0.13347,2.02864,0.21472,0.02348,-0.35823,41.8056,0.665,23.018,-37.663,355.809,-7.204,-1.54,1.97,1001.689,33.2583,48.234737,16.366467,,536.4249329019801,,,64.51613,,0 / 23,6104,2016-09-12 09:35:27:310
0.05862,-0.77768,13.77492,0.13692,1.10771,9.74293,-0.47025,-0.48477,1.29184,-0.57959,0.26736,-0.30405,46.25586,-1.14,23.854,-38.423,359.957,-7.204,-1.54,1.97,1001.689,33.2583,48.234737,16.366467,,536.4249329019801,,,64.51613,,0 / 23,6204,2016-09-12 09:35:27:410
1.22829,-0.08304,8.74262,0.01101,1.1385,9.74033,0.22952,-1.05885,-2.33166,0.57697,0.04955,-0.53876,49.90274,-0.851,24.884,-37.161,1.884,-6.667,-0.065,1.97,1001.689,33.2583,48.234737,16.366467,,536.4249329019801,,,64.51613,,0 / 23,6304,2016-09-12 09:35:27:510
0.20959,0.16278,9.07672,0.11351,0.91562,9.76315,1.2204,-1.21948,-0.555,-0.27051,-0.21815,-0.39844,51.4512,0.305,24.864,-38.612,359.09,-5.357,-0.666,1.97,1001.689,36.3188,48.234737,16.366467,,536.4249329019801,,,64.51613,,0 / 23,6405,2016-09-12 09:35:27:611
-0.10237,1.657,9.7303,0.37204,0.75936,9.77013,-0.30423,0.84887,-2.31004,-0.00301,-0.23941,-0.24937,52.0,-0.42,26.202,-38.683,357.064,-4.441,-2.181,1.97,1001.689,36.3188,48.234737,16.366467,,536.4249329019801,,,64.51613,,0 / 23,6504,2016-09-12 09:35:27:710
1.19936,2.03316,9.37154,0.41205,0.97008,9.74985,0.53551,0.72952,0.78506,0.28923,0.01486,-0.11443,52.4512,-2.628,26.003,-37.874,2.69,-5.677,-2.42,1.97,1001.689,36.3188,48.234737,16.366467,,536.4249329019801,,,64.51613,,0 / 23,6604,2016-09-12 09:35:27:810
0.38464,1.36635,11.32176,0.38091,1.23807,9.72072,0.40712,0.79132,-0.22747,0.36966,0.04164,-0.11584,53.0,-3.506,25.554,-37.804,4.687,-7.253,-2.244,1.97,1001.689,36.3188,48.234737,16.366467,,536.4249329019801,,,64.51613,,0 / 23,6705,2016-09-12 09:35:27:911
-0.53387,0.42842,10.41734,0.29189,1.25175,9.72205,-0.47632,-1.11793,1.48863,-0.14484,0.04689,0.07306,52.5566,-3.38,24.295,-39.993,3.558,-7.333,-1.72,1.97,1001.679,53.6295,48.234737,16.366467,,536.4249329019801,,,64.51613,,0 / 23,6804,2016-09-12 09:35:28:010
-1.01906,0.26598,7.67653,0.31041,1.03659,9.74677,-0.59167,-1.48911,1.69012,-0.42091,-0.13481,0.0565,52.90247,-2.937,24.794,-39.276,3.513,-7.333,-1.72,1.97,1001.679,53.6295,48.234737,16.366467,,536.4249329019801,,,64.51613,,0 / 23,6904,2016-09-12 09:35:28:110
0.06215,0.12149,10.30598,0.15772,0.75021,9.77664,0.04213,-0.57105,0.32776,-0.33382,-0.05154,0.1571,54.0,-2.133,25.142,-39.026,3.078,-5.677,-0.668,1.97,1001.679,53.6295,48.234737,16.366467,,536.4249329019801,,,64.51613,,0 / 23,7005,2016-09-12 09:35:28:211
-0.02913,1.72566,7.58142,0.18638,0.82759,9.76989,-0.16485,-0.0087,-0.77512,0.14174,-0.02971,0.02817,54.0,-2.232,25.899,-38.408,2.507,-4.841,-1.093,1.97,1001.679,47.7687,48.234737,16.366467,,536.4249329019801,,,64.51613,,0 / 23,7105,2016-09-12 09:35:28:311
0.45976,1.2813,10.36118,0.23633,0.9855,9.75414,-0.20431,0.5825,-0.14147,0.10216,-0.041,0.08713,54.45093,-1.724,25.041,-39.33,2.48,-5.473,-1.118,1.97,1001.679,47.7687,48.234737,16.366467,,536.4249329019801,,,64.51613,,0 / 23,7204,2016-09-12 09:35:28:410
0.34412,0.70471,11.42564,0.25064,1.16492,9.73399,0.08267,0.03116,0.6461,0.30803,-0.04428,-0.04829,55.45101,-1.703,24.727,-40.253,2.042,-5.768,-1.388,1.97,1001.679,47.7687,48.234737,16.366467,,536.4249329019801,,,64.51613,,0 / 23,7305,2016-09-12 09:35:28:511
-0.71841,-0.4388,12.46544,0.13518,1.36237,9.71062,0.86,0.76955,-0.18074,-0.71008,0.17566,-0.11644,56.0,-1.994,22.992,-40.636,2.01,-8.711,-1.374,1.97,1001.687,53.5613,48.234737,16.366467,,536.4249329019801,,,64.51613,,0 / 23,7404,2016-09-12 09:35:28:610
0.64488,0.41141,7.7513,0.07725,1.27445,9.72318,0.70488,-1.54972,0.97923,-0.25238,-0.15765,-0.03929,56.0,-3.07,23.607,-40.112,5.695,-7.066,-0.192,1.97,1001.689,53.5613,48.234737,16.366467,,536.4249329019801,,,64.51613,,0 / 23,7504,2016-09-12 09:35:28:710
0.19124,0.67845,8.54868,0.16715,1.0496,9.74889,0.62273,-0.57826,-0.70103,-0.27913,-0.10287,-0.24573,56.45049,-1.593,23.672,-39.639,2.673,-6.144,-0.982,1.97,1001.689,53.5613,48.234737,16.366467,,536.4249329019801,,,64.51613,,0 / 23,7604,2016-09-12 09:35:28:810
0.17186,1.81108,8.62082,0.28525,0.89804,9.76128,0.17704,0.90996,-1.42482,-0.10591,-0.09824,-0.04218,57.90055,-4.387,26.097,-41.217,5.895,-5.513,-1.285,1.97,1001.679,42.9523,48.234737,16.366467,,536.4249329019801,,,64.51613,,0 / 23,7705,2016-09-12 09:35:28:911
1.58296,1.39468,10.27516,0.37894,0.94406,9.75375,0.14509,0.56024,0.35156,-0.10591,-0.09824,-0.04218,59.45073,-4.387,26.097,-41.217,5.895,-5.513,-1.285,1.97,1001.679,42.9523,48.234737,16.366467,,536.4249329019801,,,64.51613,,0 / 23,7804,2016-09-12 09:35:29:010
1.21596,1.98416,10.96689,0.41035,1.3748,9.70113,0.24448,0.48766,0.81857,0.34132,-0.00363,-0.05188,59.54897,-4.128,25.919,-41.203,4.109,-8.059,-2.422,1.97,1001.689,42.9523,48.234737,16.366467,,536.4249329019801,,,64.51613,,0 / 23,7907,2016-09-12 09:35:29:113
-1.26425,0.8447,9.91107,0.3096,1.56898,9.67537,0.76223,0.52773,0.88822,0.41936,0.20197,0.11449,59.0,-4.477,23.558,-40.553,4.384,-8.059,-2.422,1.97,1001.688,42.9523,48.234737,16.366467,,536.4249329019801,,,64.51613,,0 / 23,8005,2016-09-12 09:35:29:211
-1.05043,0.39182,8.51622,0.38066,1.29963,9.7127,-0.31844,-1.62544,2.97461,-0.4445,-0.19691,0.2321,60.34436,-3.07,23.158,-41.524,3.1,-8.304,-1.96,1.97,1001.681,41.548,48.234737,16.366467,,536.4249329019801,,,64.51613,,0 / 23,8104,2016-09-12 09:35:29:310
0.90862,0.46954,10.08009,0.3022,1.33472,9.71069,-1.35328,-1.17872,0.00609,0.24239,0.1386,0.19734,62.44582,-3.152,23.386,-41.414,3.475,-7.822,-1.782,1.97,1001.687,41.548,48.234737,16.366467,,536.4249329019801,,,64.51613,,0 / 23,8204,2016-09-12 09:35:29:410
0.62399,1.93803,7.49942,0.54449,1.27859,9.70768,0.25141,-0.73513,0.30132,0.02292,-0.26437,0.05434,63.0,-1.801,23.146,-41.037,0.622,-7.383,-2.367,1.97,1001.683,41.548,48.234737,16.366467,,536.4249329019801,,,64.51613,,0 / 23,8305,2016-09-12 09:35:29:511
0.13242,1.8815,8.77689,0.55375,1.25857,9.70978,-0.39462,0.44559,-0.39005,-0.09602,0.01659,0.03503,63.4509,-1.884,24.01,-41.954,359.226,-7.374,-3.264,1.97,1001.684,43.5765,48.234737,16.366467,,536.4249329019801,,,64.51613,,0 / 23,8404,2016-09-12 09:35:29:610
0.24821,1.53099,10.91287,0.51221,1.28696,9.70833,-0.18021,0.39579,1.02037,0.02147,0.06018,0.01196,64.90262,-2.158,24.092,-42.024,359.226,-7.374,-3.264,1.97,1001.689,43.5765,48.234737,16.366467,,536.4249329019801,,,64.51613,,0 / 23,8505,2016-09-12 09:35:29:711
0.46178,2.31514,10.69299,0.46806,1.38684,9.6968,-0.00248,0.76117,1.09778,-0.12442,0.12718,0.07449,66.45154,-1.256,22.679,-41.27,358.039,-8.13,-2.763,1.97,1001.689,43.5765,48.234737,16.366467,,536.4249329019801,,,64.51613,,0 / 23,8604,2016-09-12 09:35:29:810
0.18535,0.12921,7.48766,0.44338,1.39576,9.69668,0.24946,-1.8613,3.18855,0.16534,-0.01935,-0.07227,67.45093,-1.576,23.82,-41.518,359.947,-8.13,-2.763,1.97,1001.689,46.3373,48.234737,16.366467,,536.4249329019801,,,64.51613,,0 / 23,8704,2016-09-12 09:35:29:910
0.60677,0.48894,8.56601,0.39971,1.4289,9.69375,0.50313,-0.92001,-1.45341,-0.22217,0.02574,-0.09744,68.0,-1.424,23.43,-40.648,358.624,-8.378,-2.361,1.97,1001.689,46.3373,48.234737,16.366467,,536.4249329019801,,,64.51613,,0 / 23,8804,2016-09-12 09:35:30:010
-0.31725,1.74123,7.53377,0.41768,1.30769,9.71009,-0.89428,-0.9337,-0.53463,-0.11371,-0.04097,0.06282,69.35453,-0.731,23.322,-41.447,358.454,-7.663,-2.463,1.97,1001.689,46.3373,48.234737,16.366467,,536.4249329019801,,,64.51613,,0 / 23,8904,2016-09-12 09:35:30:110
0.86763,1.67238,9.9754,0.5662,1.10383,9.72787,-0.63836,0.87979,-1.87526,-0.14406,-0.08127,0.32788,69.35453,-1.433,23.982,-40.981,357.216,-6.463,-3.331,1.97,1001.689,42.3716,48.234737,16.366467,,536.4249329019801,,,64.51613,,0 / 23,9005,2016-09-12 09:35:30:211
0.54039,1.46326,9.81992,0.5679,1.15194,9.72219,0.40689,0.4436,0.35757,0.21994,0.10536,0.19853,73.44817,-0.787,25.2,-40.596,357.31,-6.746,-3.343,1.97,1001.689,42.3716,48.234737,16.366467,,536.4249329019801,,,64.51613,,0 / 23,9104,2016-09-12 09:35:30:310
0.43474,2.27078,10.38774,0.35567,1.38694,9.70156,0.20105,0.52549,0.98715,0.22133,0.41658,0.27618,73.44817,0.471,23.602,-41.972,357.034,-8.13,-2.1,1.97,1001.689,42.3716,48.234737,16.366467,,536.4249329019801,,,64.51613,,0 / 23,9204,2016-09-12 09:35:30:410
-0.73312,-0.31172,11.88948,0.15832,1.08202,9.74549,-0.41302,-1.59821,3.29889,-0.76442,-0.07097,0.28726,74.0,2.684,22.379,-42.567,350.671,-8.13,-2.1,1.97,1001.689,42.3716,48.234737,16.366467,,536.4249329019801,,,64.51613,,0 / 23,9305,2016-09-12 09:35:30:511
-0.34102,1.7E-4,9.96364,-0.08979,1.20466,9.73196,-0.74967,-0.81383,-1.74205,0.51884,0.40935,0.29178,75.80384,3.763,25.018,-39.302,352.991,-7.056,0.529,1.97,1001.689,44.8751,48.234737,16.366467,,536.4249329019801,,,64.51613,,0 / 23,9404,2016-09-12 09:35:30:610
0.42276,0.90416,8.32867,0.12316,1.04293,9.75026,0.1357,-1.02355,0.23238,-0.207,-0.27429,0.41652,78.0,6.97,23.259,-40.08,344.529,-6.105,-0.724,1.97,1001.689,44.8751,48.234737,16.366467,,536.4249329019801,,,64.51613,,0 / 23,9504,2016-09-12 09:35:30:710
0.19595,1.30745,9.43839,0.29011,1.06852,9.74395,0.1338,0.08822,-2.00517,0.12212,-0.362,0.22975,78.45182,6.766,23.344,-39.781,344.529,-6.105,-0.724,1.97,1001.691,44.8751,48.234737,16.366467,,536.4249329019801,,,64.51613,,0 / 23,9604,2016-09-12 09:35:30:810
-0.4019,0.96091,10.4026,0.27731,1.05368,9.74593,-0.52337,0.04536,-0.06268,-0.02196,0.01259,0.0321,79.4514,6.349,23.409,-38.826,344.793,-5.918,-1.923,1.97,1001.699,45.2606,48.234737,16.366467,,536.4249329019801,,,64.51613,,0 / 23,9704,2016-09-12 09:35:30:910
-0.58655,1.04204,11.15892,0.21919,1.16299,9.73498,-0.49941,0.04188,0.21302,0.2047,0.12843,0.07616,80.9018,6.134,23.805,-37.999,346.395,-6.811,-1.29,1.97,1001.699,45.2606,48.234737,16.366467,,536.4249329019801,,,64.51613,,0 / 23,9804,2016-09-12 09:35:31:010
-0.43108,-0.36595,10.51965,0.12934,1.12467,9.74109,-0.50639,-1.28728,0.69017,-0.07411,0.13461,0.43536,83.9018,6.392,21.552,-37.538,346.06,-6.585,-0.761,1.97,1001.699,45.2606,48.234737,16.366467,,536.4249329019801,,,64.51613,,0 / 23,9909,2016-09-12 09:35:31:115
-0.61766,0.11916,8.7417,0.1667,1.03719,9.75022,-0.30231,-1.48109,1.83763,-0.16104,0.00739,0.46652,83.9018,7.454,19.997,-37.61,342.783,-6.585,-0.761,1.97,1001.699,50.1254,48.234737,16.366467,,536.4249329019801,,,64.51613,,0 / 23,10004,2016-09-12 09:35:31:210
-1.07304,-0.81577,10.63953,0.19735,1.02474,9.75097,-1.28249,-1.56493,0.23841,-0.07518,0.03358,0.88164,85.45118,8.36,20.663,-36.136,340.489,-5.998,-1.159,1.97,1001.695,50.1254,48.234737,16.366467,,536.4249329019801,,,64.51613,,0 / 23,10104,2016-09-12 09:35:31:310
-1.85115,-0.65396,9.16135,0.29485,0.97493,9.75361,-1.73527,-1.9873,0.86275,0.01483,-0.08,1.15665,86.90302,9.428,19.357,-36.481,335.818,-5.706,-1.732,1.97,1001.694,50.1254,48.234737,16.366467,,536.4249329019801,,,64.51613,,0 / 23,10205,2016-09-12 09:35:31:411
-0.90141,-0.9496,10.99147,0.32178,1.22694,9.72427,-2.09042,-1.73186,-0.89574,0.27884,0.13843,2.00815,87.54822,11.099,15.518,-37.473,329.151,-7.187,-1.895,1.97,1001.689,45.9895,48.234737,16.366467,,536.4249329019801,,,64.51613,,0 / 23,10304,2016-09-12 09:35:31:510
0.03679,-0.63045,9.29448,0.32254,1.49549,9.68658,-0.54063,-2.1981,-0.5839,0.26508,0.41324,2.57677,86.09742,15.012,7.52,-37.538,308.817,-8.043,-2.061,1.97,1001.689,45.9895,48.234737,16.366467,,536.4249329019801,,,64.51613,,0 / 23,10405,2016-09-12 09:35:31:611
1.05321,-0.19043,9.03851,0.26706,1.41358,9.70056,-0.35137,-2.01265,-0.42862,-0.0032,0.4894,2.63803,84.10022,15.736,3.963,-37.315,298.472,-8.288,-1.577,1.97,1001.689,45.9895,48.234737,16.366467,,536.4249329019801,,,64.51613,,0 / 23,10505,2016-09-12 09:35:31:711
1.0407,1.47139,9.14433,0.10615,1.14531,9.73896,0.9794,-1.06917,0.24959,0.05693,0.38145,1.61174,83.0,18.17,-0.238,-36.063,283.529,-7.263,-1.152,1.97,1001.689,45.9895,48.234737,16.366467,,536.4249329019801,,,64.51613,,0 / 23,10604,2016-09-12 09:35:31:810
0.95351,1.27588,9.48705,0.06917,1.05412,9.74959,0.99344,0.50591,-0.56196,-0.33571,0.1487,1.29509,83.0,17.935,-3.859,-36.134,269.62,-6.171,-0.406,1.97,1001.698,43.4784,48.234737,16.366467,,536.4249329019801,,,64.51613,,0 / 23,10704,2016-09-12 09:35:31:910
0.88914,1.94621,9.11246,0.07895,0.96945,9.75829,0.80668,0.73826,-0.5754,0.05371,0.01813,0.68372,83.0,16.541,-5.899,-34.503,261.29,-5.479,-0.404,1.97,1001.69,43.4784,48.234737,16.366467,,536.4249329019801,,,64.51613,,0 / 23,10804,2016-09-12 09:35:32:010
0.35225,2.05319,9.51614,0.07167,1.06356,9.74854,0.64494,0.9242,-0.07499,0.05371,0.01813,0.68372,82.55475,16.541,-5.899,-34.503,261.29,-5.479,-0.404,1.97,1001.69,43.4784,48.234737,16.366467,,536.4249329019801,,,64.51613,,0 / 23,10904,2016-09-12 09:35:32:110
-0.26672,1.38528,10.21591,0.01269,1.21027,9.73167,0.4254,0.82398,0.58829,-0.02509,0.04282,0.1452,81.54984,17.47,-7.317,-35.866,260.651,-6.603,-0.215,1.97,1001.69,40.5731,48.234737,16.366467,,536.4249329019801,,,64.51613,,0 / 23,11005,2016-09-12 09:35:32:211
0.909,1.87102,8.66946,0.01183,1.55741,9.68219,0.97931,0.12295,-0.41417,0.41389,-0.05321,-0.25078,80.10001,17.361,-7.75,-36.656,261.941,-8.557,0.031,1.97,1001.689,40.5731,48.234737,16.366467,,536.4249329019801,,,64.51613,,0 / 23,11105,2016-09-12 09:35:32:311
0.21893,1.1299,8.53148,0.05052,1.49516,9.69187,0.36208,-0.54302,0.66463,-0.17654,-0.04436,-0.23103,77.64841,17.422,-8.907,-36.925,259.24,-8.77,-0.299,1.97,1001.689,40.5731,48.234737,16.366467,,536.4249329019801,,,64.51613,,0 / 23,11205,2016-09-12 09:35:32:411
-0.21515,1.0891,10.00061,0.08983,1.40957,9.7044,-0.61826,-0.12492,-1.65649,-0.09898,-0.02263,-0.2607,76.0,17.819,-6.419,-36.972,268.726,-8.62,-0.423,1.97,1001.689,47.9547,48.234737,16.366467,,536.4249329019801,,,64.51613,,0 / 23,11304,2016-09-12 09:35:32:510
0.08501,1.47728,9.90666,0.16711,1.27608,9.72184,-0.50121,-0.22603,-0.01317,-0.17653,-0.18726,-0.20581,75.54891,17.278,-5.757,-37.505,268.354,-8.264,-0.53,1.97,1001.689,47.9547,48.234737,16.366467,,536.4249329019801,,,64.51613,,0 / 23,11404,2016-09-12 09:35:32:610
0.31332,2.00229,9.47693,0.18981,1.32978,9.71422,-0.06673,0.59353,-0.64742,0.12761,-0.00349,0.06175,74.549,18.224,-5.904,-38.391,266.449,-7.308,-1.051,1.97,1001.689,47.9547,48.234737,16.366467,,536.4249329019801,,,64.51613,,0 / 23,11505,2016-09-12 09:35:32:711
-0.49161,2.02705,9.0565,0.09701,1.45905,9.69702,0.62512,0.46451,0.13437,0.18439,0.14488,-0.04424,74.0,17.493,-5.966,-37.344,266.856,-7.793,-1.119,1.97,1001.689,49.7694,48.234737,16.366467,,536.4249329019801,,,64.51613,,0 / 23,11605,2016-09-12 09:35:32:811
0.79617,2.09334,10.85237,-0.1356,1.72655,9.65251,0.55235,0.19448,0.59452,0.19746,0.15144,0.09003,74.44814,18.568,-6.885,-37.625,268.02,-9.446,0.377,1.97,1001.689,49.7694,48.234737,16.366467,,536.4249329019801,,,64.51613,,0 / 23,11705,2016-09-12 09:35:32:911
0.54417,0.92358,11.21549,-0.18154,1.81758,9.63503,0.63025,0.55054,0.54526,0.10059,0.11073,0.20253,75.0,18.684,-8.13,-37.286,267.064,-10.681,1.079,1.97,1001.689,49.7694,48.234737,16.366467,,536.4249329019801,,,64.51613,,0 / 23,11804,2016-09-12 09:35:33:010
-0.73361,0.77216,10.28358,-0.03589,1.74756,9.64962,0.33931,-0.94103,1.72525,0.08989,0.04953,0.06166,74.54877,18.414,-8.662,-37.517,263.381,-10.265,0.213,1.97,1001.689,49.7694,48.234737,16.366467,,536.4249329019801,,,64.51613,,0 / 23,11904,2016-09-12 09:35:33:110
-0.46291,1.024,9.5099,-0.05023,1.77448,9.64464,-0.13202,-0.87638,-1.41592,-0.13826,-0.36101,-0.02223,73.54924,19.797,-9.648,-36.168,260.988,-10.705,0.919,1.97,1001.689,50.6502,48.234737,16.366467,,536.4249329019801,,,64.51613,,0 / 23,12004,2016-09-12 09:35:33:210
0.46269,2.14876,8.52533,0.13156,1.76798,9.64507,-0.2373,-0.50442,0.20918,0.1356,-0.16191,0.03279,73.0,17.281,-9.789,-36.754,259.47,-10.425,0.298,1.97,1001.689,50.6502,48.234737,16.366467,,536.4249329019801,,,64.51613,,0 / 23,12105,2016-09-12 09:35:33:311
0.03827,2.47308,8.14186,0.24543,1.83423,9.63046,-0.25437,0.58538,-1.83718,-0.34288,-0.17798,-0.10547,73.0,16.443,-9.525,-38.208,261.322,-11.108,-1.08,1.97,1001.689,50.6502,48.234737,16.366467,,536.4249329019801,,,64.51613,,0 / 23,12204,2016-09-12 09:35:33:410
0.34294,2.01517,11.28539,0.21028,1.73981,9.6488,0.16983,0.26153,1.26892,0.0551,0.22453,-0.19902,73.0,17.171,-7.721,-36.255,266.14,-10.78,-1.46,1.97,1001.689,45.0208,48.234737,16.366467,,536.4249329019801,,,64.51613,,0 / 23,12304,2016-09-12 09:35:33:510
0.6601,1.57983,10.84142,0.00868,1.79049,9.64181,0.11279,0.33873,1.30985,0.06685,0.14153,-0.25725,73.90219,19.093,-8.463,-36.298,266.043,-10.497,-0.393,1.97,1001.689,45.0208,48.234737,16.366467,,536.4249329019801,,,64.51613,,0 / 23,12404,2016-09-12 09:35:33:610
0.27122,0.38556,11.09825,0.08565,1.75104,9.64868,0.76444,-0.71927,1.29565,-0.05936,-0.02191,-0.08083,75.0,16.537,-8.264,-36.78,265.736,-10.286,-0.509,1.97,1001.69,45.0208,48.234737,16.366467,,536.4249329019801,,,64.51613,,0 / 23,12504,2016-09-12 09:35:33:710
0.11667,0.69133,8.85407,-0.17224,2.00043,9.59891,0.74946,-0.6303,-1.28457,0.46205,0.44159,-0.0787,75.89963,17.673,-8.611,-37.018,266.044,-11.77,1.028,1.97,1001.699,48.4434,48.234737,16.366467,,536.4249329019801,,,64.51613,,0 / 23,12604,2016-09-12 09:35:33:810
-0.46468,1.07968,9.30833,-0.10991,1.87816,9.62449,0.24231,-1.30754,-0.34434,-0.18404,-0.02211,-0.17592,77.0,18.355,-8.229,-36.299,267.011,-11.041,0.654,1.97,1001.699,48.4434,48.234737,16.366467,,536.4249329019801,,,64.51613,,0 / 23,12705,2016-09-12 09:35:33:911
0.04324,2.13162,9.3232,-0.03862,1.91281,9.61821,-0.21986,0.10269,-2.5626,0.10368,0.00583,0.01834,77.45137,17.812,-6.279,-37.3,273.646,-10.928,0.238,1.97,1001.699,48.4434,48.234737,16.366467,,536.4249329019801,,,64.51613,,0 / 23,12804,2016-09-12 09:35:34:010
0.63135,2.10745,10.19992,-0.06474,2.1278,9.57281,0.59657,0.01404,-0.02882,0.23427,0.0719,0.07983,78.0,18.703,-7.599,-36.713,268.548,-11.461,0.138,1.97,1001.699,44.6813,48.234737,16.366467,,536.4249329019801,,,64.51613,,0 / 23,12906,2016-09-12 09:35:34:112
0.30638,1.98283,9.61197,-0.10713,2.32992,9.52525,0.31052,-0.2922,0.04859,0.36565,0.12933,0.13725,77.54849,17.511,-7.942,-37.46,273.474,-13.744,0.644,1.97,1001.703,44.6813,48.234737,16.366467,,536.4249329019801,,,64.51613,,0 / 23,13004,2016-09-12 09:35:34:210
-1.03308,2.11377,9.33313,-0.20433,2.57323,9.46082,-0.75649,-0.45421,0.12328,0.06825,0.04329,0.13092,77.4496,18.813,-10.085,-36.731,270.518,-15.212,1.237,1.97,1001.71,44.6813,48.234737,16.366467,,536.4249329019801,,,64.51613,,0 / 23,13104,2016-09-12 09:35:34:310
-0.55052,1.35722,8.20752,-0.17414,2.48133,9.48594,-0.53164,-1.5904,1.97361,-0.08073,-0.00616,0.1573,77.55083,19.257,-10.712,-36.299,266.661,-15.212,1.237,1.97,1001.71,44.6813,48.234737,16.366467,,536.4249329019801,,,64.51613,,0 / 23,13205,2016-09-12 09:35:34:411
-0.10008,1.25977,10.22606,-0.04795,2.33824,9.52369,-0.24931,-1.14657,-0.12483,-0.19072,-0.24422,0.26402,76.54877,17.85,-10.847,-36.235,263.349,-13.794,0.288,1.97,1001.71,46.373,48.234737,16.366467,,536.4249329019801,,,64.51613,,0 / 23,13304,2016-09-12 09:35:34:510
0.31453,2.29544,8.21359,0.10013,2.33309,9.52455,0.05913,-0.66766,0.14907,0.06467,-0.119,0.23921,74.64731,17.39,-9.834,-36.081,266.079,-13.763,-0.602,1.97,1001.71,46.373,48.234737,16.366467,,536.4249329019801,,,64.51613,,0 / 23,13405,2016-09-12 09:35:34:611
-0.1611,2.13042,9.37967,0.13297,2.3357,9.52351,-0.52802,-0.13667,-0.12459,0.03198,0.011,0.04073,71.6469,17.802,-11.517,-36.71,261.089,-13.779,-0.8,1.97,1001.71,46.373,48.234737,16.366467,,536.4249329019801,,,64.51613,,0 / 23,13504,2016-09-12 09:35:34:710
0.28728,2.32552,9.49847,0.11284,2.39936,9.50793,-0.22141,-0.17251,-0.16827,0.11731,0.02899,-0.01611,68.66658,17.3,-11.476,-36.925,264.552,-14.162,-0.68,1.97,1001.71,44.1139,48.234737,16.366467,,536.4249329019801,,,64.51613,,0 / 23,13604,2016-09-12 09:35:34:810
0.40121,2.67886,9.65463,-0.03305,2.67523,9.43464,0.31327,-0.36119,-0.01414,0.18616,-0.03329,-0.03592,66.11447,17.711,-11.278,-37.808,267.39,-14.966,-0.138,1.97,1001.71,44.1139,48.234737,16.366467,,536.4249329019801,,,64.51613,,0 / 23,13704,2016-09-12 09:35:34:910
0.47131,0.24632,11.77745,-0.1244,2.50266,9.48112,0.51859,-2.10826,1.72789,0.19612,0.00786,-0.10236,64.09705,18.584,-13.696,-36.763,257.716,-14.785,0.752,1.97,1001.71,44.1139,48.234737,16.366467,,536.4249329019801,,,64.51613,,0 / 23,13805,2016-09-12 09:35:35:011
-0.40273,0.7019,9.49568,-0.19677,2.47635,9.4868,-0.03753,-1.33371,-0.77682,0.19612,0.00786,-0.10236,58.48599,18.584,-13.696,-36.763,257.716,-14.785,0.752,1.97,1001.71,41.8272,48.234737,16.366467,,536.4249329019801,,,64.51613,,0 / 23,13904,2016-09-12 09:35:35:110
-0.35791,0.9724,9.41478,-0.36166,2.18398,9.55352,0.22342,-1.40366,0.02042,-0.19102,0.14714,-0.00681,47.58759,17.45,-12.198,-36.655,259.947,-13.656,1.858,0.0,1001.71,41.8272,48.234737,16.366467,,536.4249329019801,,,64.51613,,0 / 23,14004,2016-09-12 09:35:35:210
-0.44157,1.98781,8.68082,-0.36933,2.13138,9.5651,-0.1412,-1.01674,-0.05651,-0.14113,0.01563,-0.03522,37.84255,18.695,-12.247,-37.202,259.359,-12.868,2.168,0.0,1001.71,41.8272,48.234737,16.366467,,536.4249329019801,,,64.51613,,0 / 23,14104,2016-09-12 09:35:35:310