ACCELEROMETER X (m/s²),ACCELEROMETER Y (m/s²),ACCELEROMETER Z (m/s²),GRAVITY X (m/s²),GRAVITY Y (m/s²),GRAVITY Z (m/s²),LINEAR ACCELERATION X (m/s²),LINEAR ACCELERATION Y (m/s²),LINEAR ACCELERATION Z (m/s²),GYROSCOPE X (rad/s),GYROSCOPE Y (rad/s),GYROSCOPE Z (rad/s),LIGHT (lux),MAGNETIC FIELD X (μT),MAGNETIC FIELD Y (μT),MAGNETIC FIELD Z (μT),ORIENTATION Z (azimuth °),ORIENTATION X (pitch °),ORIENTATION Y (roll °),PROXIMITY (i),ATMOSPHERIC PRESSURE (hPa),SOUND LEVEL (dB),LOCATION Latitude : ,LOCATION Longitude : ,LOCATION Altitude ( m),LOCATION Altitude-google ( m),LOCATION Altitude-atmospheric pressure ( m),LOCATION Speed ( Kmh),LOCATION Accuracy ( m),LOCATION ORIENTATION (°),Satellites in range,Time since start in ms ,YYYY-MO-DD HH-MI-SS_SSS
0.57797,2.01822,10.73012,0.13798,1.54089,9.68385,0.66902,0.56824,0.30503,0.15355,0.16531,0.10892,13.4501,-20.323,0.854,-41.754,68.527,-9.04,-0.816,1.97,1001.699,44.6081,48.234768,16.366447,,536.5879338864797,,,64.51613,,0 / 14,2,2016-09-12 09:41:15:780
-1.10065,3.05505,8.44885,-0.06869,1.78622,9.64236,0.16397,1.0584,-0.70341,-0.09564,-0.32607,-0.29916,18.0,-17.813,0.136,-42.474,67.774,-10.815,1.466,1.97,1001.689,15.5939,48.234768,16.366447,,536.5879338864797,,,64.51613,,0 / 14,503,2016-09-12 09:41:16:281
-0.20859,0.07462,11.11388,-0.13906,1.28598,9.72097,1.78727,-0.5265,-0.8715,-0.40823,0.03224,-0.63051,20.0,-18.385,-0.211,-42.067,70.976,-8.496,-0.004,1.97,1001.699,32.1242,48.234768,16.366447,,536.5879338864797,,,64.51613,,0 / 14,1002,2016-09-12 09:41:16:780
-0.82405,0.10568,10.57568,-0.36777,1.35193,9.70605,-0.13382,-1.78392,3.23267,-0.43199,0.28503,-0.23309,21.0,-20.105,-2.078,-39.737,79.872,-8.188,0.83,1.97,1001.699,23.1489,48.234768,16.366447,,536.5879338864797,,,64.51613,,0 / 14,1503,2016-09-12 09:41:17:281
-0.0598,2.39723,10.54993,-0.2532,1.58646,9.67416,0.21753,0.81049,0.56292,0.38266,-0.14078,-0.12747,21.0,-20.448,-0.801,-40.912,78.037,-7.857,1.884,1.97,1001.695,15.526,48.234768,16.366447,,536.5879338864797,,,64.51613,,0 / 14,2002,2016-09-12 09:41:17:780
0.71378,1.80333,10.80064,0.0045,1.04837,9.75045,0.81608,0.72687,-0.71828,-0.00375,0.08621,0.23557,19.55061,-22.632,3.755,-41.643,69.692,-6.078,-0.278,1.97,1001.689,39.7978,48.234768,16.366447,,536.5879338864797,,,64.51613,,0 / 14,2502,2016-09-12 09:41:18:280
0.99579,1.88434,8.49344,0.12068,1.36343,9.71066,0.52187,-0.0395,-0.82464,-0.34627,0.30534,0.49713,15.54897,-23.245,0.325,-41.165,73.54,-9.168,-0.955,1.97,1001.679,31.5189,48.234768,16.366447,,536.5879338864797,,,64.51613,,0 / 14,3003,2016-09-12 09:41:18:781
0.77307,0.95705,7.41484,0.76781,2.12254,9.54336,-0.74365,-1.10301,-1.94494,0.32245,0.21513,0.36705,15.0,-25.211,0.208,-38.342,70.177,-11.106,-5.223,1.97,1001.689,32.0442,48.234768,16.366447,,536.5879338864797,,,64.51613,,0 / 14,3502,2016-09-12 09:41:19:280
-0.82326,0.005,11.87779,0.43027,1.7962,9.63114,-0.70753,0.19738,1.04386,-0.05887,0.27754,1.20345,15.0,-23.174,6.76,-38.646,56.804,-10.126,-2.507,1.97,1001.689,15.4652,48.234768,16.366447,,536.5879338864797,,,64.51613,,0 / 14,4002,2016-09-12 09:41:19:780
4.40685,1.71486,11.98734,0.98758,1.58191,9.6277,1.30122,-0.17665,2.45963,0.13107,-0.03191,0.94609,13.0,-15.018,16.856,-39.043,25.172,-9.283,-5.857,1.97,1001.689,17.7897,48.234768,16.366447,,536.5879338864797,,,64.51613,,0 / 14,4502,2016-09-12 09:41:20:280
1.70842,2.85184,8.3515,0.88241,1.82995,9.59391,0.44094,-1.18712,-0.91566,0.15511,-0.12558,0.40891,8.549,-10.559,16.301,-38.901,19.0,-10.123,-4.61,1.97,1001.679,40.8934,48.234768,16.366447,,536.5879338864797,,,64.51613,,0 / 14,5002,2016-09-12 09:41:20:780
0.02684,1.99976,7.61324,0.39652,2.57398,9.45451,-0.87607,-1.33486,-1.57087,-0.32834,-0.02327,0.48473,6.0,-3.618,11.778,-40.724,4.46,-14.819,-3.171,1.97,1001.689,50.8577,48.234768,16.366447,,536.5879338864797,,,64.51613,,0 / 14,5502,2016-09-12 09:41:21:280
0.37262,-0.11128,13.70281,0.75268,2.32841,9.49644,-0.16165,-1.951,3.06766,0.07651,0.1763,0.10471,6.0,1.659,13.956,-40.639,347.324,-13.735,-4.532,1.97,1001.692,43.9024,48.234768,16.366447,,536.5879338864797,,,64.51613,,0 / 14,6002,2016-09-12 09:41:21:780
0.99756,2.3992,10.34175,0.72453,2.05387,9.56175,0.28509,0.20256,0.84149,0.20923,-0.05408,0.05704,5.0,5.649,13.182,-40.331,336.76,-12.089,-4.333,1.97,1001.699,22.4993,48.234768,16.366447,,536.5879338864797,,,64.51613,,0 / 14,6503,2016-09-12 09:41:22:281
-0.07814,2.13275,10.58807,0.4839,1.53146,9.67424,-0.65107,1.13813,-1.39955,-0.33113,0.01077,0.15491,5.0,5.597,11.168,-39.635,336.439,-10.007,-2.49,1.97,1001.69,43.7196,48.234768,16.366447,,536.5879338864797,,,64.51613,,0 / 14,7003,2016-09-12 09:41:22:781
0.36784,2.81779,6.42535,0.17524,1.92654,9.61395,-0.10605,-0.84602,0.37218,-0.44734,0.02312,-0.41875,5.0,7.069,11.25,-38.232,337.144,-12.118,-1.33,1.97,1001.689,34.7742,48.234768,16.366447,,536.5879338864797,,,64.51613,,0 / 14,7502,2016-09-12 09:41:23:280
-0.08214,2.30585,7.28874,-0.05506,2.85082,9.38297,0.05645,-1.16958,-1.71309,0.0806,0.10089,-0.01736,5.0,9.804,6.142,-36.67,327.88,-16.164,-0.125,1.97,1001.689,34.6118,48.234768,16.366447,,536.5879338864797,,,64.51613,,0 / 14,8003,2016-09-12 09:41:23:781
0.19072,1.74809,5.63419,-0.19254,1.96218,9.60641,-0.24255,-2.17044,4.41157,1.12982,-0.11409,-0.35603,6.90118,30.005,3.525,-33.186,289.662,-11.33,1.015,1.97,1001.679,24.1512,48.234768,16.366447,,536.5879338864797,,,64.51613,,0 / 14,8502,2016-09-12 09:41:24:280
-1.04698,1.92723,11.94025,-0.13623,1.92491,9.61491,-0.84589,-0.13326,2.02972,0.20006,0.00975,0.07178,30.20638,25.185,30.222,-39.273,326.648,-11.32,0.812,1.97,1001.679,35.8903,48.234768,16.366447,,536.5879338864797,,,64.51613,,0 / 14,9002,2016-09-12 09:41:24:780
-0.60078,1.98543,10.36261,-0.02794,1.29192,9.72114,0.0415,0.66027,-0.89594,-0.22418,-0.04843,0.02161,42.44841,13.043,24.135,-38.322,335.888,-7.57,0.165,1.97,1001.686,26.962,48.234768,16.366447,,536.5879338864797,,,64.51613,,0 / 14,9503,2016-09-12 09:41:25:281
-0.0744,2.03891,7.62978,-0.19042,1.52376,9.68567,-0.80691,-0.01145,-0.96991,-0.12048,-0.08691,0.18317,42.45087,9.048,23.16,-38.794,344.052,-8.939,1.126,1.97,1001.689,15.515,48.234768,16.366447,,536.5879338864797,,,64.51613,,0 / 14,10002,2016-09-12 09:41:25:780
-0.73553,1.11919,9.31448,-0.36612,1.39086,9.70061,-0.53961,-0.58862,-0.34265,0.15666,0.17789,0.02518,44.0,9.053,22.141,-39.554,344.771,-8.154,2.161,1.97,1001.679,34.2401,48.234768,16.366447,,536.5879338864797,,,64.51613,,0 / 14,10502,2016-09-12 09:41:26:280
-1.21054,0.96024,9.78134,-0.28399,1.80089,9.63569,-0.26619,0.52445,-0.79737,-0.61319,-0.11617,-0.09467,45.0,8.412,17.615,-41.364,345.217,-12.03,1.517,1.97,1001.686,43.5939,48.234768,16.366447,,536.5879338864797,,,64.51613,,0 / 14,11002,2016-09-12 09:41:26:780
0.89418,1.28079,12.21086,-0.11253,1.54395,9.6837,0.80249,-0.19879,1.79494,-0.2061,-0.01436,0.29962,47.0,8.009,18.486,-41.423,343.348,-9.062,1.04,1.97,1001.689,18.1116,48.234768,16.366447,,536.5879338864797,,,64.51613,,0 / 14,11503,2016-09-12 09:41:27:281
-0.21996,1.66347,9.18791,-0.03742,0.97777,9.75771,0.36825,0.66737,-1.26009,-0.14668,-0.18779,0.02042,50.90055,8.127,21.324,-40.25,342.5,-5.722,0.22,1.97,1001.699,38.0201,48.234768,16.366447,,536.5879338864797,,,64.51613,,0 / 14,12003,2016-09-12 09:41:27:781
-0.79951,-0.07239,9.90894,-0.29596,0.34334,9.79617,0.61817,-1.30892,1.13341,0.0222,-0.10735,-0.6716,58.89835,4.878,26.085,-38.95,352.05,-2.006,1.73,1.97,1001.699,37.4557,48.234768,16.366447,,536.5879338864797,,,64.51613,,0 / 14,12502,2016-09-12 09:41:28:280
-1.96053,-0.26341,8.48193,-0.52932,0.84367,9.75594,-0.72492,-1.80361,1.02225,0.01649,-0.03659,-0.35873,62.89914,5.45,26.416,-38.623,353.945,-4.173,2.852,1.97,1001.689,47.4598,48.234768,16.366447,,536.5879338864797,,,64.51613,,0 / 14,13002,2016-09-12 09:41:28:780
-0.56883,1.72302,9.47668,0.07591,1.04818,9.75018,-0.39858,0.91368,-0.4059,0.19279,-0.0719,-0.5213,70.76801,-2.467,27.394,-41.098,3.142,-5.35,-0.439,1.97,1001.679,34.4506,48.234768,16.366447,,536.5879338864797,,,64.51613,,0 / 14,13502,2016-09-12 09:41:29:280
2.41505,-0.1761,9.82826,0.01053,1.19805,9.73319,1.325,-1.33065,0.29087,0.08087,-0.05283,-0.83519,101.70704,-8.643,23.824,-47.209,16.621,-6.881,-0.25,1.97,1001.686,42.2153,48.234768,16.366447,,536.5879338864797,,,64.51613,,0 / 14,14003,2016-09-12 09:41:29:781
0.0614,0.0619,10.72138,0.41784,1.29009,9.71244,-0.78417,-1.04835,-0.06385,0.36836,-0.08395,-1.3289,115.29756,-26.75,9.328,-43.741,60.682,-6.59,-2.398,1.97,1001.679,55.0019,48.234768,16.366447,,536.5879338864797,,,64.51613,,0 / 14,14503,2016-09-12 09:41:30:281
-0.64691,1.41258,9.41904,0.30608,1.42388,9.6979,0.13419,0.36022,-0.42298,0.11664,0.23074,0.19742,82.8418,-25.395,7.249,-42.329,60.811,-8.061,-2.419,1.97,1001.679,43.9668,48.234768,16.366447,,536.5879338864797,,,64.51613,,0 / 13,15002,2016-09-12 09:41:30:780
5.09827,3.2538,13.26563,-0.08567,1.59252,9.6761,-3.49863,0.03875,-2.55755,0.19913,0.70021,0.57521,63.55008,-27.165,6.461,-41.176,65.379,-9.346,0.507,1.97,1001.677,33.4363,48.234768,16.366447,,536.5879338864797,,,64.51613,,0 / 13,15502,2016-09-12 09:41:31:280
0.70821,1.94237,9.1546,-0.05992,0.86284,9.76843,0.26537,1.03938,-0.80871,0.16441,-0.05707,0.02174,48.5488,-25.618,6.465,-40.886,70.593,-4.684,0.584,1.97,1001.679,59.4214,48.234768,16.366447,,536.5879338864797,,,64.51613,,0 / 14,16006,2016-09-12 09:41:31:784
-0.19363,1.55426,9.263,-0.12026,1.56541,9.68016,0.07946,-0.52223,0.16491,0.26999,0.04718,0.15375,46.0,-25.224,7.175,-40.607,62.277,-9.185,0.712,1.97,1001.669,41.1323,48.234768,16.366447,,536.5879338864797,,,64.51613,,0 / 14,16503,2016-09-12 09:41:32:281
0.14409,0.70616,11.06171,-0.10384,1.2485,9.7263,-0.06636,-0.49717,1.48627,-0.22749,-0.12743,-0.19565,52.0,-26.48,5.205,-42.412,67.652,-8.219,0.722,1.97,1001.669,39.162,48.234768,16.366447,,536.5879338864797,,,64.51613,,0 / 13,17002,2016-09-12 09:41:32:780
-0.3223,1.61256,10.72867,0.14618,1.55846,9.68092,-0.54892,0.16972,0.97221,0.08578,-0.14503,0.01785,51.0,-28.055,3.003,-42.57,70.17,-9.144,-0.865,1.97,1001.679,43.0426,48.234768,16.366447,,536.5879338864797,,,64.51613,,0 / 13,17504,2016-09-12 09:41:33:282
0.50961,1.66554,8.49257,-0.09119,1.54706,9.68342,0.40383,0.05915,-0.5865,-0.08055,0.05859,-0.06448,54.55487,-28.404,0.246,-43.207,76.648,-9.077,0.54,0.0,1001.679,37.1386,48.234768,16.366447,,536.5879338864797,,,64.51613,,0 / 14,18002,2016-09-12 09:41:33:780
-0.77588,0.95415,10.224,-0.11893,1.17828,9.73488,-0.66277,-0.06857,0.11713,-0.01141,-0.07121,-0.04172,46.54911,-24.596,-2.76,-40.793,85.714,-6.901,0.7,0.0,1001.669,40.8946,48.234768,16.366447,,536.5879338864797,,,64.51613,,0 / 14,18502,2016-09-12 09:41:34:280