ACCELEROMETER X (m/s²),ACCELEROMETER Y (m/s²),ACCELEROMETER Z (m/s²),GRAVITY X (m/s²),GRAVITY Y (m/s²),GRAVITY Z (m/s²),LINEAR ACCELERATION X (m/s²),LINEAR ACCELERATION Y (m/s²),LINEAR ACCELERATION Z (m/s²),GYROSCOPE X (rad/s),GYROSCOPE Y (rad/s),GYROSCOPE Z (rad/s),LIGHT (lux),MAGNETIC FIELD X (μT),MAGNETIC FIELD Y (μT),MAGNETIC FIELD Z (μT),ORIENTATION Z (azimuth °),ORIENTATION X (pitch °),ORIENTATION Y (roll °),PROXIMITY (i),ATMOSPHERIC PRESSURE (hPa),SOUND LEVEL (dB),LOCATION Latitude : ,LOCATION Longitude : ,LOCATION Altitude ( m),LOCATION Altitude-google ( m),LOCATION Altitude-atmospheric pressure ( m),LOCATION Speed ( Kmh),LOCATION Accuracy ( m),LOCATION ORIENTATION (°),Satellites in range,Time since start in ms ,YYYY-MO-DD HH-MI-SS_SSS
0.2067,4.27383,8.48367,0.93306,3.90662,8.9464,-0.32068,0.10499,-0.10533,-4.1E-4,-0.02197,-0.06602,4.0,-1.202,-25.504,-33.267,192.751,-23.476,-5.954,0.0,1001.63,33.4909,48.23488,16.367449,306.452,535.1076609183506,,0.0,158.06451,,0 / 20,2,2016-09-12 08:43:50:960
0.2067,4.27383,8.48367,0.93306,3.90662,8.9464,-0.32068,0.10499,-0.10533,-4.1E-4,-0.02197,-0.06602,4.0,-1.202,-25.504,-33.267,192.751,-23.476,-5.954,1.97,1001.63,26.9661,48.23488,16.367449,306.452,535.1076609183506,,0.0,158.06451,,0 / 20,502,2016-09-12 08:43:51:460
0.2067,4.27383,8.48367,0.93306,3.90662,8.9464,-0.32068,0.10499,-0.10533,-4.1E-4,-0.02197,-0.06602,4.0,-1.202,-25.504,-33.267,192.751,-23.476,-5.954,1.97,1001.63,22.8156,48.23488,16.367449,306.452,535.1076609183506,,0.0,158.06451,,0 / 20,1002,2016-09-12 08:43:51:960
0.2067,4.27383,8.48367,0.93306,3.90662,8.9464,-0.32068,0.10499,-0.10533,-4.1E-4,-0.02197,-0.06602,4.0,-1.202,-25.504,-33.267,192.751,-23.476,-5.954,1.97,1001.63,54.1536,48.23488,16.367449,306.452,535.1076609183506,,0.0,158.06451,,0 / 20,1502,2016-09-12 08:43:52:460
0.2067,4.27383,8.48367,0.93306,3.90662,8.9464,-0.32068,0.10499,-0.10533,-4.1E-4,-0.02197,-0.06602,4.0,-1.202,-25.504,-33.267,192.751,-23.476,-5.954,1.97,1001.63,48.6138,48.23488,16.367449,306.452,535.1076609183506,,0.0,158.06451,,0 / 20,2002,2016-09-12 08:43:52:960
0.2067,4.27383,8.48367,0.93306,3.90662,8.9464,-0.32068,0.10499,-0.10533,-4.1E-4,-0.02197,-0.06602,4.0,-1.202,-25.504,-33.267,192.751,-23.476,-5.954,1.97,1001.63,51.0009,48.23488,16.367449,306.452,535.1076609183506,,0.0,158.06451,,0 / 20,2503,2016-09-12 08:43:53:461
0.2067,4.27383,8.48367,0.93306,3.90662,8.9464,-0.32068,0.10499,-0.10533,-4.1E-4,-0.02197,-0.06602,4.0,-1.202,-25.504,-33.267,192.751,-23.476,-5.954,1.97,1001.63,54.0975,48.23488,16.367449,306.452,535.1076609183506,,0.0,158.06451,,0 / 20,3003,2016-09-12 08:43:53:961
-3.05147,3.95908,9.48294,0.93306,3.90662,8.9464,-0.32068,0.10499,-0.10533,-4.1E-4,-0.02197,-0.06602,3.45076,-1.202,-25.504,-33.267,192.751,-23.476,-5.954,0.0,1001.63,46.1338,48.23488,16.367449,306.452,535.1076609183506,,0.0,158.06451,,0 / 20,3502,2016-09-12 08:43:54:460
-3.05147,3.95908,9.48294,-0.11353,4.38015,8.77336,-1.38571,-0.15403,0.63836,-1.49345,-0.61868,0.36537,3.45076,17.596,13.11,-34.116,326.886,-26.529,0.741,0.0,1001.58,46.6047,48.23488,16.367449,306.452,535.1076609183506,,0.0,158.06451,,0 / 20,4002,2016-09-12 08:43:54:960
-3.05147,3.95908,9.48294,-0.11353,4.38015,8.77336,-1.38571,-0.15403,0.63836,-1.49345,-0.61868,0.36537,3.45076,17.596,13.11,-34.116,326.886,-26.529,0.741,1.97,1001.58,41.5736,48.23488,16.367449,306.452,535.1076609183506,,0.0,158.06451,,0 / 20,4502,2016-09-12 08:43:55:460
-3.05147,3.95908,9.48294,-0.11353,4.38015,8.77336,-1.38571,-0.15403,0.63836,-1.49345,-0.61868,0.36537,3.45076,17.596,13.11,-34.116,326.886,-26.529,0.741,1.97,1001.58,41.6178,48.23488,16.367449,306.452,535.1076609183506,,0.0,158.06451,,0 / 20,5002,2016-09-12 08:43:55:960
-3.05147,3.95908,9.48294,-0.11353,4.38015,8.77336,-1.38571,-0.15403,0.63836,-1.49345,-0.61868,0.36537,3.45076,17.596,13.11,-34.116,326.886,-26.529,0.741,1.97,1001.58,43.1243,48.23488,16.367449,306.452,535.1076609183506,,0.0,158.06451,,0 / 20,5503,2016-09-12 08:43:56:461
-3.05147,3.95908,9.48294,-0.11353,4.38015,8.77336,-1.38571,-0.15403,0.63836,-1.49345,-0.61868,0.36537,3.45076,17.596,13.11,-34.116,326.886,-26.529,0.741,1.97,1001.58,26.3749,48.23488,16.367449,306.452,535.1076609183506,,0.0,158.06451,,0 / 20,6002,2016-09-12 08:43:56:960
-3.05147,3.95908,9.48294,-0.11353,4.38015,8.77336,-1.38571,-0.15403,0.63836,-1.49345,-0.61868,0.36537,3.45076,17.596,13.11,-34.116,326.886,-26.529,0.741,1.97,1001.58,58.973,48.23488,16.367449,306.452,535.1076609183506,,0.0,158.06451,,0 / 20,6504,2016-09-12 08:43:57:462
-3.05147,3.95908,9.48294,-0.11353,4.38015,8.77336,-1.38571,-0.15403,0.63836,-1.49345,-0.61868,0.36537,3.45076,17.596,13.11,-34.116,326.886,-26.529,0.741,1.97,1001.58,57.0974,48.23488,16.367449,306.452,535.1076609183506,,0.0,158.06451,,0 / 20,7003,2016-09-12 08:43:57:961
-3.05147,3.95908,9.48294,-0.11353,4.38015,8.77336,-1.38571,-0.15403,0.63836,-1.49345,-0.61868,0.36537,3.45076,17.596,13.11,-34.116,326.886,-26.529,0.741,1.97,1001.58,16.4554,48.23488,16.367449,306.452,535.1076609183506,,0.0,158.06451,,0 / 20,7502,2016-09-12 08:43:58:460
-3.05147,3.95908,9.48294,-0.11353,4.38015,8.77336,-1.38571,-0.15403,0.63836,-1.49345,-0.61868,0.36537,3.45076,17.596,13.11,-34.116,326.886,-26.529,0.741,1.97,1001.58,32.2002,48.23488,16.367449,306.452,535.1076609183506,,0.0,158.06451,,0 / 20,8002,2016-09-12 08:43:58:960
0.04427,0.26126,9.84004,-0.11353,4.38015,8.77336,-1.38571,-0.15403,0.63836,-1.49345,-0.61868,0.36537,3.45076,17.596,13.11,-34.116,326.886,-26.529,0.741,1.97,1001.58,53.687,48.23488,16.367449,306.452,535.1076609183506,,0.0,158.06451,,0 / 20,8503,2016-09-12 08:43:59:461
0.04427,0.26126,9.84004,-0.01856,0.28822,9.8024,0.02345,-0.02634,-0.01108,0.00172,0.00201,0.0042,3.45076,23.627,24.446,-4.109,315.138,-1.684,0.108,1.97,1001.58,47.8335,48.23488,16.367449,306.452,535.1076609183506,,0.0,158.06451,,0 / 20,9002,2016-09-12 08:43:59:960
0.04427,0.26126,9.84004,-0.01856,0.28822,9.8024,0.02345,-0.02634,-0.01108,0.00172,0.00201,0.0042,3.45076,23.627,24.446,-4.109,315.138,-1.684,0.108,1.97,1001.58,52.6217,48.23488,16.367449,306.452,535.1076609183506,,0.0,158.06451,,0 / 20,9503,2016-09-12 08:44:00:461
0.04427,0.26126,9.84004,-0.01856,0.28822,9.8024,0.02345,-0.02634,-0.01108,0.00172,0.00201,0.0042,3.45076,23.627,24.446,-4.109,315.138,-1.684,0.108,1.97,1001.58,46.5513,48.23488,16.367449,306.452,535.1076609183506,,0.0,158.06451,,0 / 20,10002,2016-09-12 08:44:00:960
0.04427,0.26126,9.84004,-0.01856,0.28822,9.8024,0.02345,-0.02634,-0.01108,0.00172,0.00201,0.0042,3.45076,23.627,24.446,-4.109,315.138,-1.684,0.108,1.97,1001.58,42.9482,48.23488,16.367449,306.452,535.1076609183506,,0.0,158.06451,,0 / 20,10502,2016-09-12 08:44:01:460
0.04427,0.26126,9.84004,-0.01856,0.28822,9.8024,0.02345,-0.02634,-0.01108,0.00172,0.00201,0.0042,3.45076,23.627,24.446,-4.109,315.138,-1.684,0.108,1.97,1001.58,56.8113,48.23488,16.367449,306.452,535.1076609183506,,0.0,158.06451,,0 / 20,11002,2016-09-12 08:44:01:960
0.04427,0.26126,9.84004,-0.01856,0.28822,9.8024,0.02345,-0.02634,-0.01108,0.00172,0.00201,0.0042,3.45076,23.627,24.446,-4.109,315.138,-1.684,0.108,1.97,1001.58,38.6018,48.23488,16.367449,306.452,535.1076609183506,,0.0,158.06451,,0 / 20,11502,2016-09-12 08:44:02:460
0.04427,0.26126,9.84004,-0.01856,0.28822,9.8024,0.02345,-0.02634,-0.01108,0.00172,0.00201,0.0042,3.45076,23.627,24.446,-4.109,315.138,-1.684,0.108,1.97,1001.58,15.4094,48.23488,16.367449,306.452,535.1076609183506,,0.0,158.06451,,0 / 20,12003,2016-09-12 08:44:02:961
0.04427,0.26126,9.84004,-0.01856,0.28822,9.8024,0.02345,-0.02634,-0.01108,0.00172,0.00201,0.0042,3.45076,23.627,24.446,-4.109,315.138,-1.684,0.108,1.97,1001.58,15.4778,48.23488,16.367449,306.452,535.1076609183506,,0.0,158.06451,,0 / 20,12502,2016-09-12 08:44:03:460
0.04427,0.26126,9.84004,-0.01856,0.28822,9.8024,0.02345,-0.02634,-0.01108,0.00172,0.00201,0.0042,3.45076,23.627,24.446,-4.109,315.138,-1.684,0.108,1.97,1001.58,22.1999,48.23488,16.367449,306.452,535.1076609183506,,0.0,158.06451,,0 / 20,13002,2016-09-12 08:44:03:960
-0.02017,0.25629,9.78833,-0.00169,0.27984,9.80266,-0.00137,-0.00562,0.00532,0.00192,-0.00101,4.4E-4,3.45076,23.627,24.446,-4.109,315.138,-1.684,0.108,1.97,1001.58,52.7338,48.23488,16.367449,306.452,535.1076609183506,,0.0,158.06451,,0 / 20,13503,2016-09-12 08:44:04:461
-0.02017,0.25629,9.78833,-0.00169,0.27984,9.80266,-0.00137,-0.00562,0.00532,0.00192,-0.00101,4.4E-4,3.45076,24.092,25.876,-4.546,317.436,-1.635,0.01,1.97,1001.59,15.9431,48.23488,16.367449,306.452,535.1076609183506,,0.0,158.06451,,0 / 20,14003,2016-09-12 08:44:04:961
-0.02017,0.25629,9.78833,-0.00169,0.27984,9.80266,-0.00137,-0.00562,0.00532,0.00192,-0.00101,4.4E-4,3.45076,24.092,25.876,-4.546,317.436,-1.635,0.01,1.97,1001.59,28.6787,48.23488,16.367449,306.452,535.1076609183506,,0.0,158.06451,,0 / 20,14502,2016-09-12 08:44:05:460
-0.02017,0.25629,9.78833,-0.00169,0.27984,9.80266,-0.00137,-0.00562,0.00532,0.00192,-0.00101,4.4E-4,3.45076,24.092,25.876,-4.546,317.436,-1.635,0.01,1.97,1001.59,15.5598,48.23488,16.367449,306.452,535.1076609183506,,0.0,158.06451,,0 / 20,15002,2016-09-12 08:44:05:960
-0.02017,0.25629,9.78833,-0.00169,0.27984,9.80266,-0.00137,-0.00562,0.00532,0.00192,-0.00101,4.4E-4,3.45076,24.092,25.876,-4.546,317.436,-1.635,0.01,1.97,1001.59,32.2989,48.23488,16.367449,306.452,535.1076609183506,,0.0,158.06451,,0 / 20,15503,2016-09-12 08:44:06:461
-0.02017,0.25629,9.78833,-0.00169,0.27984,9.80266,-0.00137,-0.00562,0.00532,0.00192,-0.00101,4.4E-4,3.45076,24.092,25.876,-4.546,317.436,-1.635,0.01,1.97,1001.59,16.134,48.23488,16.367449,306.452,535.1076609183506,,0.0,158.06451,,0 / 20,16002,2016-09-12 08:44:06:960
-0.02017,0.25629,9.78833,-0.00169,0.27984,9.80266,-0.00137,-0.00562,0.00532,0.00192,-0.00101,4.4E-4,3.45076,24.092,25.876,-4.546,317.436,-1.635,0.01,1.97,1001.59,43.9503,48.23488,16.367449,306.452,535.1076609183506,,0.0,158.06451,,0 / 20,16503,2016-09-12 08:44:07:461
-0.02017,0.25629,9.78833,-0.00169,0.27984,9.80266,-0.00137,-0.00562,0.00532,0.00192,-0.00101,4.4E-4,3.45076,24.092,25.876,-4.546,317.436,-1.635,0.01,1.97,1001.59,46.7566,48.23488,16.367449,306.452,535.1076609183506,,0.0,158.06451,,0 / 20,17004,2016-09-12 08:44:07:962
-0.02017,0.25629,9.78833,-0.00169,0.27984,9.80266,-0.00137,-0.00562,0.00532,0.00192,-0.00101,4.4E-4,3.45076,24.092,25.876,-4.546,317.436,-1.635,0.01,1.97,1001.59,29.2626,48.23488,16.367449,306.452,535.1076609183506,,0.0,158.06451,,0 / 20,17502,2016-09-12 08:44:08:460
-0.02017,0.25629,9.78833,-0.00169,0.27984,9.80266,-0.00137,-0.00562,0.00532,0.00192,-0.00101,4.4E-4,3.45076,24.092,25.876,-4.546,317.436,-1.635,0.01,1.97,1001.59,30.5775,48.23488,16.367449,306.452,535.1076609183506,,0.0,158.06451,,0 / 20,18003,2016-09-12 08:44:08:961
-0.0078,0.24294,9.74394,-4.0E-4,0.27975,9.80266,0.00925,-5.9E-4,-2.8E-4,0.00179,-0.00101,-2.0E-5,3.45076,24.092,25.876,-4.546,317.436,-1.635,0.01,1.97,1001.59,40.4343,48.23488,16.367449,306.452,535.1076609183506,,0.0,158.06451,,0 / 20,18503,2016-09-12 08:44:09:461
-0.0078,0.24294,9.74394,-4.0E-4,0.27975,9.80266,0.00925,-5.9E-4,-2.8E-4,0.00179,-0.00101,-2.0E-5,3.45076,24.828,26.286,-5.696,316.3,-1.635,0.002,1.97,1001.59,63.163,48.23488,16.367449,306.452,535.1076609183506,,0.0,158.06451,,0 / 20,19003,2016-09-12 08:44:09:961
-0.0078,0.24294,9.74394,-4.0E-4,0.27975,9.80266,0.00925,-5.9E-4,-2.8E-4,0.00179,-0.00101,-2.0E-5,6.54933,24.828,26.286,-5.696,316.3,-1.635,0.002,1.97,1001.59,17.9116,48.23488,16.367449,306.452,535.1076609183506,,0.0,158.06451,,0 / 20,19502,2016-09-12 08:44:10:460
-0.0078,0.24294,9.74394,-4.0E-4,0.27975,9.80266,0.00925,-5.9E-4,-2.8E-4,0.00179,-0.00101,-2.0E-5,6.54933,24.828,26.286,-5.696,316.3,-1.635,0.002,1.97,1001.59,19.0793,48.23488,16.367449,306.452,535.1076609183506,,0.0,158.06451,,0 / 20,20003,2016-09-12 08:44:10:961
-0.0078,0.24294,9.74394,-4.0E-4,0.27975,9.80266,0.00925,-5.9E-4,-2.8E-4,0.00179,-0.00101,-2.0E-5,6.54933,24.828,26.286,-5.696,316.3,-1.635,0.002,1.97,1001.59,15.5226,48.23488,16.367449,306.452,535.1076609183506,,0.0,158.06451,,0 / 20,20503,2016-09-12 08:44:11:461
-0.0078,0.24294,9.74394,-4.0E-4,0.27975,9.80266,0.00925,-5.9E-4,-2.8E-4,0.00179,-0.00101,-2.0E-5,6.54933,24.828,26.286,-5.696,316.3,-1.635,0.002,1.97,1001.59,16.8588,48.23488,16.367449,306.452,535.1076609183506,,0.0,158.06451,,0 / 20,21002,2016-09-12 08:44:11:960
-0.0078,0.24294,9.74394,-4.0E-4,0.27975,9.80266,0.00925,-5.9E-4,-2.8E-4,0.00179,-0.00101,-2.0E-5,6.54933,24.828,26.286,-5.696,316.3,-1.635,0.002,1.97,1001.59,25.6635,48.23488,16.367449,306.452,535.1076609183506,,0.0,158.06451,,0 / 20,21502,2016-09-12 08:44:12:460
-0.0078,0.24294,9.74394,-4.0E-4,0.27975,9.80266,0.00925,-5.9E-4,-2.8E-4,0.00179,-0.00101,-2.0E-5,6.54933,24.828,26.286,-5.696,316.3,-1.635,0.002,1.97,1001.59,21.2667,48.23488,16.367449,306.452,535.1076609183506,,0.0,158.06451,,0 / 20,22003,2016-09-12 08:44:12:961
-0.0078,0.24294,9.74394,-4.0E-4,0.27975,9.80266,0.00925,-5.9E-4,-2.8E-4,0.00179,-0.00101,-2.0E-5,6.54933,24.828,26.286,-5.696,316.3,-1.635,0.002,1.97,1001.59,22.9769,48.23488,16.367449,306.452,535.1076609183506,,0.0,158.06451,,0 / 20,22503,2016-09-12 08:44:13:461
-0.0078,0.24294,9.74394,-4.0E-4,0.27975,9.80266,0.00925,-5.9E-4,-2.8E-4,0.00179,-0.00101,-2.0E-5,6.54933,24.828,26.286,-5.696,316.3,-1.635,0.002,1.97,1001.59,34.7975,48.23488,16.367449,306.452,535.1076609183506,,0.0,158.06451,,0 / 20,23002,2016-09-12 08:44:13:960
0.02565,0.2804,9.75932,0.00387,0.28456,9.80252,0.00658,-0.00618,-0.00243,0.00119,-0.00101,-0.00101,6.54933,24.828,26.286,-5.696,316.3,-1.635,0.002,1.97,1001.59,32.4653,48.23488,16.367449,306.452,535.1076609183506,,0.0,158.06451,,0 / 20,23502,2016-09-12 08:44:14:460
0.02565,0.2804,9.75932,0.00387,0.28456,9.80252,0.00658,-0.00618,-0.00243,0.00119,-0.00101,-0.00101,6.54933,24.471,25.34,-3.52,316.288,-1.663,-0.023,1.97,1001.59,29.7721,48.23488,16.367449,306.452,535.1076609183506,,0.0,158.06451,,0 / 20,24003,2016-09-12 08:44:14:961
0.02565,0.2804,9.75932,0.00387,0.28456,9.80252,0.00658,-0.00618,-0.00243,0.00119,-0.00101,-0.00101,6.54933,24.471,25.34,-3.52,316.288,-1.663,-0.023,1.97,1001.59,39.373,48.23488,16.367449,306.452,535.1076609183506,,0.0,158.06451,,0 / 20,24502,2016-09-12 08:44:15:460
0.02565,0.2804,9.75932,0.00387,0.28456,9.80252,0.00658,-0.00618,-0.00243,0.00119,-0.00101,-0.00101,6.54933,24.471,25.34,-3.52,316.288,-1.663,-0.023,1.97,1001.59,26.6744,48.23488,16.367449,306.452,535.1076609183506,,0.0,158.06451,,0 / 20,25003,2016-09-12 08:44:15:961
0.02565,0.2804,9.75932,0.00387,0.28456,9.80252,0.00658,-0.00618,-0.00243,0.00119,-0.00101,-0.00101,6.54933,24.471,25.34,-3.52,316.288,-1.663,-0.023,1.97,1001.59,28.087,48.23488,16.367449,306.452,535.1076609183506,,0.0,158.06451,,0 / 20,25502,2016-09-12 08:44:16:460
0.02565,0.2804,9.75932,0.00387,0.28456,9.80252,0.00658,-0.00618,-0.00243,0.00119,-0.00101,-0.00101,6.54933,24.471,25.34,-3.52,316.288,-1.663,-0.023,1.97,1001.59,25.0336,48.23488,16.367449,306.452,535.1076609183506,,0.0,158.06451,,0 / 20,26002,2016-09-12 08:44:16:960
0.02565,0.2804,9.75932,0.00387,0.28456,9.80252,0.00658,-0.00618,-0.00243,0.00119,-0.00101,-0.00101,6.54933,24.471,25.34,-3.52,316.288,-1.663,-0.023,1.97,1001.59,24.5701,48.23488,16.367449,306.452,535.1076609183506,,0.0,158.06451,,0 / 20,26502,2016-09-12 08:44:17:460
0.02565,0.2804,9.75932,0.00387,0.28456,9.80252,0.00658,-0.00618,-0.00243,0.00119,-0.00101,-0.00101,6.54933,24.471,25.34,-3.52,316.288,-1.663,-0.023,1.97,1001.59,43.8829,48.23488,16.367449,306.452,535.1076609183506,,0.0,158.06451,,0 / 20,27003,2016-09-12 08:44:17:961
0.02565,0.2804,9.75932,0.00387,0.28456,9.80252,0.00658,-0.00618,-0.00243,0.00119,-0.00101,-0.00101,6.54933,24.471,25.34,-3.52,316.288,-1.663,-0.023,1.97,1001.59,42.7816,48.23488,16.367449,306.452,535.1076609183506,,0.0,158.06451,,0 / 20,27502,2016-09-12 08:44:18:460
0.02565,0.2804,9.75932,0.00387,0.28456,9.80252,0.00658,-0.00618,-0.00243,0.00119,-0.00101,-0.00101,6.54933,24.471,25.34,-3.52,316.288,-1.663,-0.023,1.97,1001.59,50.7049,48.23488,16.367449,306.452,535.1076609183506,,0.0,158.06451,,0 / 20,28002,2016-09-12 08:44:18:960
0.02698,0.26421,9.75604,0.00114,0.2749,9.8028,-0.0145,-0.02735,0.00496,0.00211,-0.00121,-6.3E-4,6.54933,24.471,25.34,-3.52,316.288,-1.663,-0.023,1.97,1001.59,40.189,48.23488,16.367449,306.452,535.1076609183506,,0.0,158.06451,,0 / 20,28502,2016-09-12 08:44:19:460
0.02698,0.26421,9.75604,0.00114,0.2749,9.8028,-0.0145,-0.02735,0.00496,0.00211,-0.00121,-6.3E-4,6.54933,23.639,26.984,-4.132,318.473,-1.606,-0.007,1.97,1001.6,15.683,48.23488,16.367449,306.452,535.1076609183506,,0.0,158.06451,,0 / 20,29003,2016-09-12 08:44:19:961
0.02698,0.26421,9.75604,0.00114,0.2749,9.8028,-0.0145,-0.02735,0.00496,0.00211,-0.00121,-6.3E-4,6.54933,23.639,26.984,-4.132,318.473,-1.606,-0.007,1.97,1001.6,18.6381,48.23488,16.367449,306.452,535.1076609183506,,0.0,158.06451,,0 / 19,29502,2016-09-12 08:44:20:460
0.02698,0.26421,9.75604,0.00114,0.2749,9.8028,-0.0145,-0.02735,0.00496,0.00211,-0.00121,-6.3E-4,6.54933,23.639,26.984,-4.132,318.473,-1.606,-0.007,1.97,1001.6,22.1993,48.23488,16.367449,306.452,535.1076609183506,,0.0,158.06451,,0 / 20,30003,2016-09-12 08:44:20:961
0.02698,0.26421,9.75604,0.00114,0.2749,9.8028,-0.0145,-0.02735,0.00496,0.00211,-0.00121,-6.3E-4,6.54933,23.639,26.984,-4.132,318.473,-1.606,-0.007,1.97,1001.6,24.5114,48.23488,16.367449,306.452,535.1076609183506,,0.0,158.06451,,0 / 20,30502,2016-09-12 08:44:21:460
0.02698,0.26421,9.75604,0.00114,0.2749,9.8028,-0.0145,-0.02735,0.00496,0.00211,-0.00121,-6.3E-4,6.54933,23.639,26.984,-4.132,318.473,-1.606,-0.007,1.97,1001.6,39.1224,48.23488,16.367449,306.452,535.1076609183506,,0.0,158.06451,,0 / 20,31002,2016-09-12 08:44:21:960
0.02698,0.26421,9.75604,0.00114,0.2749,9.8028,-0.0145,-0.02735,0.00496,0.00211,-0.00121,-6.3E-4,6.54933,23.639,26.984,-4.132,318.473,-1.606,-0.007,1.97,1001.6,20.2532,48.23488,16.367449,306.452,535.1076609183506,,0.0,158.06451,,0 / 20,31503,2016-09-12 08:44:22:461
0.02698,0.26421,9.75604,0.00114,0.2749,9.8028,-0.0145,-0.02735,0.00496,0.00211,-0.00121,-6.3E-4,6.54933,23.639,26.984,-4.132,318.473,-1.606,-0.007,1.97,1001.6,27.2018,48.23488,16.367449,306.452,535.1076609183506,,0.0,158.06451,,0 / 20,32003,2016-09-12 08:44:22:961
0.02698,0.26421,9.75604,0.00114,0.2749,9.8028,-0.0145,-0.02735,0.00496,0.00211,-0.00121,-6.3E-4,6.54933,23.639,26.984,-4.132,318.473,-1.606,-0.007,1.97,1001.6,32.1393,48.23488,16.367449,306.452,535.1076609183506,,0.0,158.06451,,0 / 20,32502,2016-09-12 08:44:23:460
0.02698,0.26421,9.75604,0.00114,0.2749,9.8028,-0.0145,-0.02735,0.00496,0.00211,-0.00121,-6.3E-4,6.54933,23.639,26.984,-4.132,318.473,-1.606,-0.007,1.97,1001.6,27.1934,48.23488,16.367449,306.452,535.1076609183506,,0.0,158.06451,,0 / 20,33004,2016-09-12 08:44:23:962
-0.0042,0.26775,9.76707,9.7E-4,0.27842,9.8027,-0.00164,-0.02076,0.00152,0.00195,-0.00204,-5.8E-4,6.54933,23.639,26.984,-4.132,318.473,-1.606,-0.007,1.97,1001.6,29.8977,48.23488,16.367449,306.452,535.1076609183506,,0.0,158.06451,,0 / 19,33503,2016-09-12 08:44:24:461
-0.0042,0.26775,9.76707,9.7E-4,0.27842,9.8027,-0.00164,-0.02076,0.00152,0.00195,-0.00204,-5.8E-4,6.54933,23.572,26.674,-4.677,318.504,-1.627,-0.006,1.97,1001.6,29.6888,48.23488,16.367449,306.452,535.1076609183506,,0.0,158.06451,,0 / 19,34004,2016-09-12 08:44:24:962
-0.0042,0.26775,9.76707,9.7E-4,0.27842,9.8027,-0.00164,-0.02076,0.00152,0.00195,-0.00204,-5.8E-4,6.54933,23.572,26.674,-4.677,318.504,-1.627,-0.006,1.97,1001.6,28.0179,48.23488,16.367449,306.452,535.1076609183506,,0.0,158.06451,,0 / 19,34502,2016-09-12 08:44:25:460
-0.0042,0.26775,9.76707,9.7E-4,0.27842,9.8027,-0.00164,-0.02076,0.00152,0.00195,-0.00204,-5.8E-4,6.54933,23.572,26.674,-4.677,318.504,-1.627,-0.006,1.97,1001.6,30.2377,48.23488,16.367449,306.452,535.1076609183506,,0.0,158.06451,,0 / 20,35006,2016-09-12 08:44:25:964
-0.0042,0.26775,9.76707,9.7E-4,0.27842,9.8027,-0.00164,-0.02076,0.00152,0.00195,-0.00204,-5.8E-4,6.54933,23.572,26.674,-4.677,318.504,-1.627,-0.006,1.97,1001.6,31.0777,48.23488,16.367449,306.452,535.1076609183506,,0.0,158.06451,,0 / 20,35502,2016-09-12 08:44:26:460
-0.0042,0.26775,9.76707,9.7E-4,0.27842,9.8027,-0.00164,-0.02076,0.00152,0.00195,-0.00204,-5.8E-4,6.54933,23.572,26.674,-4.677,318.504,-1.627,-0.006,1.97,1001.6,29.8317,48.23488,16.367449,306.452,535.1076609183506,,0.0,158.06451,,0 / 20,36003,2016-09-12 08:44:26:961
-0.0042,0.26775,9.76707,9.7E-4,0.27842,9.8027,-0.00164,-0.02076,0.00152,0.00195,-0.00204,-5.8E-4,6.54933,23.572,26.674,-4.677,318.504,-1.627,-0.006,1.97,1001.6,27.956,48.23488,16.367449,306.452,535.1076609183506,,0.0,158.06451,,0 / 20,36503,2016-09-12 08:44:27:461
-0.0042,0.26775,9.76707,9.7E-4,0.27842,9.8027,-0.00164,-0.02076,0.00152,0.00195,-0.00204,-5.8E-4,6.54933,23.572,26.674,-4.677,318.504,-1.627,-0.006,1.97,1001.6,29.0169,48.23488,16.367449,306.452,535.1076609183506,,0.0,158.06451,,0 / 20,37002,2016-09-12 08:44:27:960
-0.0042,0.26775,9.76707,9.7E-4,0.27842,9.8027,-0.00164,-0.02076,0.00152,0.00195,-0.00204,-5.8E-4,6.54933,23.572,26.674,-4.677,318.504,-1.627,-0.006,1.97,1001.6,28.796,48.23488,16.367449,306.452,535.1076609183506,,0.0,158.06451,,0 / 20,37504,2016-09-12 08:44:28:462
-0.0042,0.26775,9.76707,9.7E-4,0.27842,9.8027,-0.00164,-0.02076,0.00152,0.00195,-0.00204,-5.8E-4,6.54933,23.572,26.674,-4.677,318.504,-1.627,-0.006,1.97,1001.6,28.8035,48.23488,16.367449,306.452,535.1076609183506,,0.0,158.06451,,0 / 20,38003,2016-09-12 08:44:28:961
-0.03101,0.26672,9.71509,0.00155,0.28331,9.80256,-0.00618,-0.0056,0.0045,0.00307,-0.00307,-7.0E-4,6.54933,23.572,26.674,-4.677,318.504,-1.627,-0.006,1.97,1001.6,30.6231,48.23488,16.367449,306.452,535.1076609183506,,0.0,158.06451,,0 / 20,38503,2016-09-12 08:44:29:461
-0.03101,0.26672,9.71509,0.00155,0.28331,9.80256,-0.00618,-0.0056,0.0045,0.00307,-0.00307,-7.0E-4,6.54933,24.362,26.891,-5.052,318.505,-1.656,-0.009,1.97,1001.6,30.7649,48.23488,16.367449,306.452,535.1076609183506,,0.0,158.06451,,0 / 20,39002,2016-09-12 08:44:29:960
-0.03101,0.26672,9.71509,0.00155,0.28331,9.80256,-0.00618,-0.0056,0.0045,0.00307,-0.00307,-7.0E-4,6.54933,24.362,26.891,-5.052,318.505,-1.656,-0.009,1.97,1001.6,29.0649,48.23488,16.367449,306.452,535.1076609183506,,0.0,158.06451,,0 / 20,39502,2016-09-12 08:44:30:460
-0.03101,0.26672,9.71509,0.00155,0.28331,9.80256,-0.00618,-0.0056,0.0045,0.00307,-0.00307,-7.0E-4,6.54933,24.362,26.891,-5.052,318.505,-1.656,-0.009,1.97,1001.6,28.1529,48.23488,16.367449,306.452,535.1076609183506,,0.0,158.06451,,0 / 20,40002,2016-09-12 08:44:30:960
-0.03101,0.26672,9.71509,0.00155,0.28331,9.80256,-0.00618,-0.0056,0.0045,0.00307,-0.00307,-7.0E-4,6.54933,24.362,26.891,-5.052,318.505,-1.656,-0.009,1.97,1001.6,28.4678,48.23488,16.367449,306.452,535.1076609183506,,0.0,158.06451,,0 / 20,40502,2016-09-12 08:44:31:460
-0.03101,0.26672,9.71509,0.00155,0.28331,9.80256,-0.00618,-0.0056,0.0045,0.00307,-0.00307,-7.0E-4,6.54933,24.362,26.891,-5.052,318.505,-1.656,-0.009,1.97,1001.6,24.9006,48.23488,16.367449,306.452,535.1076609183506,,0.0,158.06451,,0 / 20,41002,2016-09-12 08:44:31:960
-0.03101,0.26672,9.71509,0.00155,0.28331,9.80256,-0.00618,-0.0056,0.0045,0.00307,-0.00307,-7.0E-4,6.54933,24.362,26.891,-5.052,318.505,-1.656,-0.009,1.97,1001.6,26.1601,48.23488,16.367449,306.452,535.1076609183506,,0.0,158.06451,,0 / 20,41502,2016-09-12 08:44:32:460
-0.03101,0.26672,9.71509,0.00155,0.28331,9.80256,-0.00618,-0.0056,0.0045,0.00307,-0.00307,-7.0E-4,6.54933,24.362,26.891,-5.052,318.505,-1.656,-0.009,1.97,1001.6,30.7759,48.23488,16.367449,306.452,535.1076609183506,,0.0,158.06451,,0 / 20,42003,2016-09-12 08:44:32:961
-0.03101,0.26672,9.71509,0.00155,0.28331,9.80256,-0.00618,-0.0056,0.0045,0.00307,-0.00307,-7.0E-4,6.54933,24.362,26.891,-5.052,318.505,-1.656,-0.009,1.97,1001.6,30.1704,48.23488,16.367449,306.452,535.1076609183506,,0.0,158.06451,,0 / 20,42503,2016-09-12 08:44:33:461
-0.01204,0.2879,9.78355,0.00155,0.28331,9.80256,-0.00618,-0.0056,0.0045,0.00307,-0.00307,-7.0E-4,6.54933,24.362,26.891,-5.052,318.505,-1.656,-0.009,1.97,1001.6,27.9817,48.23488,16.367449,306.452,535.1076609183506,,0.0,158.06451,,0 / 20,43003,2016-09-12 08:44:33:961
-0.01204,0.2879,9.78355,0.00691,0.28468,9.80252,-0.01867,-0.00152,-0.01789,0.00252,-0.00125,-0.00169,6.54933,24.362,26.891,-5.052,318.505,-1.656,-0.009,1.97,1001.6,28.3965,48.23488,16.367449,306.452,535.1076609183506,,0.0,158.06451,,0 / 20,43503,2016-09-12 08:44:34:461
-0.01204,0.2879,9.78355,0.00691,0.28468,9.80252,-0.01867,-0.00152,-0.01789,0.00252,-0.00125,-0.00169,6.54933,23.248,26.07,-4.515,318.645,-1.663,-0.04,1.97,1001.59,29.7725,48.23488,16.367449,306.452,535.1076609183506,,0.0,158.06451,,0 / 20,44002,2016-09-12 08:44:34:960
-0.01204,0.2879,9.78355,0.00691,0.28468,9.80252,-0.01867,-0.00152,-0.01789,0.00252,-0.00125,-0.00169,6.54933,23.248,26.07,-4.515,318.645,-1.663,-0.04,1.97,1001.59,32.3242,48.23488,16.367449,306.452,535.1076609183506,,0.0,158.06451,,0 / 20,44503,2016-09-12 08:44:35:461
-0.01204,0.2879,9.78355,0.00691,0.28468,9.80252,-0.01867,-0.00152,-0.01789,0.00252,-0.00125,-0.00169,6.54933,23.248,26.07,-4.515,318.645,-1.663,-0.04,1.97,1001.59,35.4121,48.23488,16.367449,306.452,535.1076609183506,,0.0,158.06451,,0 / 20,45002,2016-09-12 08:44:35:960
-0.01204,0.2879,9.78355,0.00691,0.28468,9.80252,-0.01867,-0.00152,-0.01789,0.00252,-0.00125,-0.00169,6.54933,23.248,26.07,-4.515,318.645,-1.663,-0.04,1.97,1001.59,30.4626,48.23488,16.367449,306.452,535.1076609183506,,0.0,158.06451,,0 / 20,45502,2016-09-12 08:44:36:460
-0.01204,0.2879,9.78355,0.00691,0.28468,9.80252,-0.01867,-0.00152,-0.01789,0.00252,-0.00125,-0.00169,6.54933,23.248,26.07,-4.515,318.645,-1.663,-0.04,1.97,1001.59,28.6303,48.23488,16.367449,306.452,535.1076609183506,,0.0,158.06451,,0 / 20,46002,2016-09-12 08:44:36:960
-0.01204,0.2879,9.78355,0.00691,0.28468,9.80252,-0.01867,-0.00152,-0.01789,0.00252,-0.00125,-0.00169,6.54933,23.248,26.07,-4.515,318.645,-1.663,-0.04,1.97,1001.59,32.0494,48.23488,16.367449,306.452,535.1076609183506,,0.0,158.06451,,0 / 20,46502,2016-09-12 08:44:37:460
-0.01204,0.2879,9.78355,0.00691,0.28468,9.80252,-0.01867,-0.00152,-0.01789,0.00252,-0.00125,-0.00169,6.54933,23.248,26.07,-4.515,318.645,-1.663,-0.04,1.97,1001.59,29.4446,48.23488,16.367449,306.452,535.1076609183506,,0.0,158.06451,,0 / 20,47002,2016-09-12 08:44:37:960
-0.01204,0.2879,9.78355,0.00691,0.28468,9.80252,-0.01867,-0.00152,-0.01789,0.00252,-0.00125,-0.00169,6.54933,23.248,26.07,-4.515,318.645,-1.663,-0.04,1.97,1001.59,31.5028,48.23488,16.367449,306.452,535.1076609183506,,0.0,158.06451,,0 / 20,47503,2016-09-12 08:44:38:461
0.00961,0.24973,9.79195,0.00691,0.28468,9.80252,-0.01867,-0.00152,-0.01789,0.00252,-0.00125,-0.00169,6.54933,23.248,26.07,-4.515,318.645,-1.663,-0.04,1.97,1001.59,30.7151,48.23488,16.367449,306.452,535.1076609183506,,0.0,158.06451,,0 / 20,48003,2016-09-12 08:44:38:961
0.00961,0.24973,9.79195,0.00217,0.27786,9.80271,-0.01394,-0.01703,-4.0E-5,0.00153,-0.00208,-0.00101,6.54933,23.248,26.07,-4.515,318.645,-1.663,-0.04,1.97,1001.59,27.7916,48.23488,16.367449,306.452,535.1076609183506,,0.0,158.06451,,0 / 20,48503,2016-09-12 08:44:39:461
0.00961,0.24973,9.79195,0.00217,0.27786,9.80271,-0.01394,-0.01703,-4.0E-5,0.00153,-0.00208,-0.00101,6.54933,23.37,25.504,-4.079,318.615,-1.624,-0.013,1.97,1001.58,27.7906,48.23488,16.367449,306.452,535.1076609183506,,0.0,158.06451,,0 / 20,49003,2016-09-12 08:44:39:961
0.00961,0.24973,9.79195,0.00217,0.27786,9.80271,-0.01394,-0.01703,-4.0E-5,0.00153,-0.00208,-0.00101,6.54933,23.37,25.504,-4.079,318.615,-1.624,-0.013,1.97,1001.58,30.8443,48.23488,16.367449,306.452,535.1076609183506,,0.0,158.06451,,0 / 20,49503,2016-09-12 08:44:40:461
0.00961,0.24973,9.79195,0.00217,0.27786,9.80271,-0.01394,-0.01703,-4.0E-5,0.00153,-0.00208,-0.00101,6.54933,23.37,25.504,-4.079,318.615,-1.624,-0.013,1.97,1001.58,27.0573,48.23488,16.367449,306.452,535.1076609183506,,0.0,158.06451,,0 / 19,50002,2016-09-12 08:44:40:960
0.00961,0.24973,9.79195,0.00217,0.27786,9.80271,-0.01394,-0.01703,-4.0E-5,0.00153,-0.00208,-0.00101,6.54933,23.37,25.504,-4.079,318.615,-1.624,-0.013,1.97,1001.58,28.7281,48.23488,16.367449,306.452,535.1076609183506,,0.0,158.06451,,0 / 19,50502,2016-09-12 08:44:41:460
0.00961,0.24973,9.79195,0.00217,0.27786,9.80271,-0.01394,-0.01703,-4.0E-5,0.00153,-0.00208,-0.00101,6.54933,23.37,25.504,-4.079,318.615,-1.624,-0.013,1.97,1001.58,29.2804,48.23488,16.367449,306.452,535.1076609183506,,0.0,158.06451,,0 / 20,51002,2016-09-12 08:44:41:960
0.00961,0.24973,9.79195,0.00217,0.27786,9.80271,-0.01394,-0.01703,-4.0E-5,0.00153,-0.00208,-0.00101,6.54933,23.37,25.504,-4.079,318.615,-1.624,-0.013,1.97,1001.58,30.3731,48.23488,16.367449,306.452,535.1076609183506,,0.0,158.06451,,0 / 20,51503,2016-09-12 08:44:42:461
0.00961,0.24973,9.79195,0.00217,0.27786,9.80271,-0.01394,-0.01703,-4.0E-5,0.00153,-0.00208,-0.00101,6.54933,23.37,25.504,-4.079,318.615,-1.624,-0.013,1.97,1001.58,30.1456,48.23488,16.367449,306.452,535.1076609183506,,0.0,158.06451,,0 / 20,52002,2016-09-12 08:44:42:960
0.00961,0.24973,9.79195,0.00217,0.27786,9.80271,-0.01394,-0.01703,-4.0E-5,0.00153,-0.00208,-0.00101,6.54933,23.37,25.504,-4.079,318.615,-1.624,-0.013,1.97,1001.58,26.6778,48.23488,16.367449,306.452,535.1076609183506,,0.0,158.06451,,0 / 20,52503,2016-09-12 08:44:43:461
-0.0228,0.2439,9.80084,0.00217,0.27786,9.80271,-0.01394,-0.01703,-4.0E-5,0.00153,-0.00208,-0.00101,6.54933,23.37,25.504,-4.079,318.615,-1.624,-0.013,1.97,1001.58,31.0166,48.23488,16.367449,306.452,535.1076609183506,,0.0,158.06451,,0 / 20,53004,2016-09-12 08:44:43:962
-0.0228,0.2439,9.80084,0.00663,0.28232,9.80258,0.01254,-0.00669,0.00948,0.00192,-0.00206,-0.00223,6.54933,23.37,25.504,-4.079,318.615,-1.624,-0.013,1.97,1001.58,31.2126,48.23488,16.367449,306.452,535.1076609183506,,0.0,158.06451,,0 / 20,53502,2016-09-12 08:44:44:460
-0.0228,0.2439,9.80084,0.00663,0.28232,9.80258,0.01254,-0.00669,0.00948,0.00192,-0.00206,-0.00223,6.54933,22.676,26.132,-5.07,318.644,-1.65,-0.039,1.97,1001.57,27.8964,48.23488,16.367449,306.452,535.1076609183506,,0.0,158.06451,,0 / 20,54004,2016-09-12 08:44:44:962
-0.0228,0.2439,9.80084,0.00663,0.28232,9.80258,0.01254,-0.00669,0.00948,0.00192,-0.00206,-0.00223,6.54933,22.676,26.132,-5.07,318.644,-1.65,-0.039,1.97,1001.57,29.163,48.23488,16.367449,306.452,535.1076609183506,,0.0,158.06451,,0 / 20,54503,2016-09-12 08:44:45:461
-0.0228,0.2439,9.80084,0.00663,0.28232,9.80258,0.01254,-0.00669,0.00948,0.00192,-0.00206,-0.00223,6.54933,22.676,26.132,-5.07,318.644,-1.65,-0.039,1.97,1001.57,29.5739,48.23488,16.367449,306.452,535.1076609183506,,0.0,158.06451,,0 / 20,55002,2016-09-12 08:44:45:960
-0.0228,0.2439,9.80084,0.00663,0.28232,9.80258,0.01254,-0.00669,0.00948,0.00192,-0.00206,-0.00223,6.54933,22.676,26.132,-5.07,318.644,-1.65,-0.039,1.97,1001.57,29.2472,48.23488,16.367449,306.452,535.1076609183506,,0.0,158.06451,,0 / 20,55502,2016-09-12 08:44:46:460
-0.0228,0.2439,9.80084,0.00663,0.28232,9.80258,0.01254,-0.00669,0.00948,0.00192,-0.00206,-0.00223,6.54933,22.676,26.132,-5.07,318.644,-1.65,-0.039,1.97,1001.57,26.8952,48.23488,16.367449,306.452,535.1076609183506,,0.0,158.06451,,0 / 20,56006,2016-09-12 08:44:46:964
-0.0228,0.2439,9.80084,0.00663,0.28232,9.80258,0.01254,-0.00669,0.00948,0.00192,-0.00206,-0.00223,6.54933,22.676,26.132,-5.07,318.644,-1.65,-0.039,1.97,1001.57,27.4227,48.23488,16.367449,306.452,535.1076609183506,,0.0,158.06451,,0 / 20,56503,2016-09-12 08:44:47:461
-0.0228,0.2439,9.80084,0.00663,0.28232,9.80258,0.01254,-0.00669,0.00948,0.00192,-0.00206,-0.00223,6.54933,22.676,26.132,-5.07,318.644,-1.65,-0.039,1.97,1001.57,30.7208,48.23488,16.367449,306.452,535.1076609183506,,0.0,158.06451,,0 / 20,57002,2016-09-12 08:44:47:960
-0.0228,0.2439,9.80084,0.00663,0.28232,9.80258,0.01254,-0.00669,0.00948,0.00192,-0.00206,-0.00223,6.54933,22.676,26.132,-5.07,318.644,-1.65,-0.039,1.97,1001.57,26.9841,48.23488,16.367449,306.452,535.1076609183506,,0.0,158.06451,,0 / 20,57503,2016-09-12 08:44:48:461
-0.00848,0.24059,9.79677,0.00663,0.28232,9.80258,0.01254,-0.00669,0.00948,0.00192,-0.00206,-0.00223,6.54933,22.676,26.132,-5.07,318.644,-1.65,-0.039,1.97,1001.57,30.2071,48.23488,16.367449,306.452,535.1076609183506,,0.0,158.06451,,0 / 20,58002,2016-09-12 08:44:48:960
-0.00848,0.24059,9.79677,0.00632,0.2803,9.80264,9.5E-4,-0.01176,0.00156,0.00192,-0.00208,-0.00169,6.54933,22.676,26.132,-5.07,318.644,-1.65,-0.039,1.97,1001.57,22.2345,48.23488,16.367449,306.452,535.1076609183506,,0.0,158.06451,,0 / 20,58503,2016-09-12 08:44:49:461
-0.00848,0.24059,9.79677,0.00632,0.2803,9.80264,9.5E-4,-0.01176,0.00156,0.00192,-0.00208,-0.00169,6.54933,23.355,25.909,-4.898,318.643,-1.638,-0.037,1.97,1001.59,26.9757,48.23488,16.367449,306.452,535.1076609183506,,0.0,158.06451,,0 / 20,59002,2016-09-12 08:44:49:960
-0.00848,0.24059,9.79677,0.00632,0.2803,9.80264,9.5E-4,-0.01176,0.00156,0.00192,-0.00208,-0.00169,6.54933,23.355,25.909,-4.898,318.643,-1.638,-0.037,1.97,1001.59,30.0845,48.23488,16.367449,306.452,535.1076609183506,,0.0,158.06451,,0 / 20,59503,2016-09-12 08:44:50:461
-0.00848,0.24059,9.79677,0.00632,0.2803,9.80264,9.5E-4,-0.01176,0.00156,0.00192,-0.00208,-0.00169,6.54933,23.355,25.909,-4.898,318.643,-1.638,-0.037,1.97,1001.59,29.4722,48.23488,16.367449,306.452,535.1076609183506,,0.0,158.06451,,1 / 15,60002,2016-09-12 08:44:50:960
-0.00848,0.24059,9.79677,0.00632,0.2803,9.80264,9.5E-4,-0.01176,0.00156,0.00192,-0.00208,-0.00169,6.54933,23.355,25.909,-4.898,318.643,-1.638,-0.037,1.97,1001.59,25.8738,48.23488,16.367449,306.452,535.1076609183506,,0.0,158.06451,,1 / 15,60502,2016-09-12 08:44:51:460
-0.00848,0.24059,9.79677,0.00632,0.2803,9.80264,9.5E-4,-0.01176,0.00156,0.00192,-0.00208,-0.00169,6.54933,23.355,25.909,-4.898,318.643,-1.638,-0.037,1.97,1001.59,30.1558,48.23488,16.367449,306.452,535.1076609183506,,0.0,158.06451,,1 / 15,61002,2016-09-12 08:44:51:960
-0.00848,0.24059,9.79677,0.00632,0.2803,9.80264,9.5E-4,-0.01176,0.00156,0.00192,-0.00208,-0.00169,6.54933,23.355,25.909,-4.898,318.643,-1.638,-0.037,1.97,1001.59,28.1352,48.23488,16.367449,306.452,535.1076609183506,,0.0,158.06451,,1 / 15,61503,2016-09-12 08:44:52:461
-0.00848,0.24059,9.79677,0.00632,0.2803,9.80264,9.5E-4,-0.01176,0.00156,0.00192,-0.00208,-0.00169,6.54933,23.355,25.909,-4.898,318.643,-1.638,-0.037,1.97,1001.59,28.0301,48.23488,16.367449,306.452,535.1076609183506,,0.0,158.06451,,1 / 15,62002,2016-09-12 08:44:52:960
-0.00848,0.24059,9.79677,0.00632,0.2803,9.80264,9.5E-4,-0.01176,0.00156,0.00192,-0.00208,-0.00169,6.54933,23.355,25.909,-4.898,318.643,-1.638,-0.037,1.97,1001.59,27.5727,48.23488,16.367449,306.452,535.1076609183506,,0.0,158.06451,,1 / 15,62502,2016-09-12 08:44:53:460
0.00571,0.27762,9.80701,0.00632,0.2803,9.80264,9.5E-4,-0.01176,0.00156,0.00192,-0.00208,-0.00169,6.54933,23.355,25.909,-4.898,318.643,-1.638,-0.037,1.97,1001.59,22.9104,48.23488,16.367449,306.452,535.1076609183506,,0.0,158.06451,,1 / 15,63003,2016-09-12 08:44:53:961
0.00571,0.27762,9.80701,0.0098,0.27992,9.80265,-0.00252,-0.00869,-0.01855,0.00128,-0.00101,-0.00169,6.54933,23.355,25.909,-4.898,318.643,-1.638,-0.037,1.97,1001.59,24.1176,48.23488,16.367449,306.452,535.1076609183506,,0.0,158.06451,,1 / 15,63503,2016-09-12 08:44:54:461
0.00571,0.27762,9.80701,0.0098,0.27992,9.80265,-0.00252,-0.00869,-0.01855,0.00128,-0.00101,-0.00169,6.54933,23.369,25.9,-4.962,318.641,-1.636,-0.057,1.97,1001.56,28.8881,48.23488,16.367449,306.452,535.1076609183506,,0.0,158.06451,,1 / 15,64003,2016-09-12 08:44:54:961
0.00571,0.27762,9.80701,0.0098,0.27992,9.80265,-0.00252,-0.00869,-0.01855,0.00128,-0.00101,-0.00169,6.54933,23.369,25.9,-4.962,318.641,-1.636,-0.057,1.97,1001.56,25.6239,48.23488,16.367449,306.452,535.1076609183506,,0.0,158.06451,,1 / 15,64503,2016-09-12 08:44:55:461
0.00571,0.27762,9.80701,0.0098,0.27992,9.80265,-0.00252,-0.00869,-0.01855,0.00128,-0.00101,-0.00169,6.54933,23.369,25.9,-4.962,318.641,-1.636,-0.057,1.97,1001.56,27.6673,48.23488,16.367449,306.452,535.1076609183506,,0.0,158.06451,,1 / 15,65004,2016-09-12 08:44:55:962
0.00571,0.27762,9.80701,0.0098,0.27992,9.80265,-0.00252,-0.00869,-0.01855,0.00128,-0.00101,-0.00169,6.54933,23.369,25.9,-4.962,318.641,-1.636,-0.057,1.97,1001.56,26.3041,48.23488,16.367449,306.452,535.1076609183506,,0.0,158.06451,,1 / 15,65502,2016-09-12 08:44:56:460
0.00571,0.27762,9.80701,0.0098,0.27992,9.80265,-0.00252,-0.00869,-0.01855,0.00128,-0.00101,-0.00169,6.54933,23.369,25.9,-4.962,318.641,-1.636,-0.057,1.97,1001.56,28.3397,48.23488,16.367449,306.452,535.1076609183506,,0.0,158.06451,,1 / 15,66002,2016-09-12 08:44:56:960
0.00571,0.27762,9.80701,0.0098,0.27992,9.80265,-0.00252,-0.00869,-0.01855,0.00128,-0.00101,-0.00169,6.54933,23.369,25.9,-4.962,318.641,-1.636,-0.057,1.97,1001.56,32.4136,48.23488,16.367449,306.452,535.1076609183506,,0.0,158.06451,,1 / 15,66502,2016-09-12 08:44:57:460
0.00571,0.27762,9.80701,0.0098,0.27992,9.80265,-0.00252,-0.00869,-0.01855,0.00128,-0.00101,-0.00169,6.54933,23.369,25.9,-4.962,318.641,-1.636,-0.057,1.97,1001.56,30.3986,48.23488,16.367449,306.452,535.1076609183506,,0.0,158.06451,,1 / 15,67004,2016-09-12 08:44:57:962
0.00571,0.27762,9.80701,0.0098,0.27992,9.80265,-0.00252,-0.00869,-0.01855,0.00128,-0.00101,-0.00169,6.54933,23.369,25.9,-4.962,318.641,-1.636,-0.057,1.97,1001.56,32.2724,48.23488,16.367449,306.452,535.1076609183506,,0.0,158.06451,,1 / 15,67503,2016-09-12 08:44:58:461
0.0045,0.27568,9.73648,0.0098,0.27992,9.80265,-0.00252,-0.00869,-0.01855,0.00128,-0.00101,-0.00169,6.54933,23.369,25.9,-4.962,318.641,-1.636,-0.057,1.97,1001.56,30.8453,48.23488,16.367449,306.452,535.1076609183506,,0.0,158.06451,,1 / 15,68003,2016-09-12 08:44:58:961
0.0045,0.27568,9.73648,0.0017,0.2821,9.80259,-0.00475,-0.01074,0.01603,0.00198,6.0E-5,-0.00169,6.54933,24.632,26.582,-4.333,317.311,-1.648,-0.01,1.97,1001.56,28.401,48.23488,16.367449,306.452,535.1076609183506,,0.0,158.06451,,1 / 15,68502,2016-09-12 08:44:59:460
0.0045,0.27568,9.73648,0.0017,0.2821,9.80259,-0.00475,-0.01074,0.01603,0.00198,6.0E-5,-0.00169,6.54933,24.632,26.582,-4.333,317.311,-1.648,-0.01,1.97,1001.59,33.3043,48.23488,16.367449,306.452,535.1076609183506,,0.0,158.06451,,1 / 15,69002,2016-09-12 08:44:59:960
0.0045,0.27568,9.73648,0.0017,0.2821,9.80259,-0.00475,-0.01074,0.01603,0.00198,6.0E-5,-0.00169,6.54933,24.632,26.582,-4.333,317.311,-1.648,-0.01,1.97,1001.59,28.5096,48.23488,16.367449,306.452,535.1076609183506,,0.0,158.06451,,1 / 15,69503,2016-09-12 08:45:00:461
0.0045,0.27568,9.73648,0.0017,0.2821,9.80259,-0.00475,-0.01074,0.01603,0.00198,6.0E-5,-0.00169,6.54933,24.632,26.582,-4.333,317.311,-1.648,-0.01,1.97,1001.59,29.6555,48.23488,16.367449,306.452,535.1076609183506,,0.0,158.06451,,1 / 15,70002,2016-09-12 08:45:00:960
0.0045,0.27568,9.73648,0.0017,0.2821,9.80259,-0.00475,-0.01074,0.01603,0.00198,6.0E-5,-0.00169,6.54933,24.632,26.582,-4.333,317.311,-1.648,-0.01,1.97,1001.59,33.786,48.23488,16.367449,306.452,535.1076609183506,,0.0,158.06451,,1 / 15,70502,2016-09-12 08:45:01:460
0.0045,0.27568,9.73648,0.0017,0.2821,9.80259,-0.00475,-0.01074,0.01603,0.00198,6.0E-5,-0.00169,6.54933,24.632,26.582,-4.333,317.311,-1.648,-0.01,1.97,1001.59,31.0078,48.23488,16.367449,306.452,535.1076609183506,,0.0,158.06451,,1 / 15,71003,2016-09-12 08:45:01:961
0.0045,0.27568,9.73648,0.0017,0.2821,9.80259,-0.00475,-0.01074,0.01603,0.00198,6.0E-5,-0.00169,6.54933,24.632,26.582,-4.333,317.311,-1.648,-0.01,1.97,1001.59,30.1756,48.23488,16.367449,306.452,535.1076609183506,,0.0,158.06451,,1 / 15,71502,2016-09-12 08:45:02:460
0.0045,0.27568,9.73648,0.0017,0.2821,9.80259,-0.00475,-0.01074,0.01603,0.00198,6.0E-5,-0.00169,6.54933,24.632,26.582,-4.333,317.311,-1.648,-0.01,1.97,1001.59,23.5901,48.23488,16.367449,306.452,535.1076609183506,,0.0,158.06451,,1 / 15,72003,2016-09-12 08:45:02:961
0.0045,0.27568,9.73648,0.0017,0.2821,9.80259,-0.00475,-0.01074,0.01603,0.00198,6.0E-5,-0.00169,6.54933,24.632,26.582,-4.333,317.311,-1.648,-0.01,1.97,1001.59,45.0617,48.23488,16.367449,306.452,535.1076609183506,,0.0,158.06451,,1 / 15,72502,2016-09-12 08:45:03:460
0.01033,0.29555,9.75372,0.0017,0.2821,9.80259,-0.00475,-0.01074,0.01603,0.00198,6.0E-5,-0.00169,6.54933,24.632,26.582,-4.333,317.311,-1.648,-0.01,1.97,1001.59,17.9527,48.23488,16.367449,306.452,535.1076609183506,,0.0,158.06451,,1 / 16,73003,2016-09-12 08:45:03:961
0.01033,0.29555,9.75372,-0.00235,0.26973,9.80294,0.00405,0.0088,-0.02815,-3.5E-4,6.3E-4,9.2E-4,6.54933,23.714,27.142,-4.037,318.473,-1.576,0.014,1.97,1001.59,18.9336,48.23488,16.367449,306.452,535.1076609183506,,0.0,158.06451,,1 / 16,73502,2016-09-12 08:45:04:460
0.01033,0.29555,9.75372,-0.00235,0.26973,9.80294,0.00405,0.0088,-0.02815,-3.5E-4,6.3E-4,9.2E-4,6.54933,23.714,27.142,-4.037,318.473,-1.576,0.014,1.97,1001.59,16.7622,48.23488,16.367449,306.452,535.1076609183506,,0.0,158.06451,,1 / 16,74003,2016-09-12 08:45:04:961
0.01033,0.29555,9.75372,-0.00235,0.26973,9.80294,0.00405,0.0088,-0.02815,-3.5E-4,6.3E-4,9.2E-4,6.54933,23.714,27.142,-4.037,318.473,-1.576,0.014,1.97,1001.59,24.5913,48.23488,16.367449,306.452,535.1076609183506,,0.0,158.06451,,1 / 16,74504,2016-09-12 08:45:05:462
0.01033,0.29555,9.75372,-0.00235,0.26973,9.80294,0.00405,0.0088,-0.02815,-3.5E-4,6.3E-4,9.2E-4,6.54933,23.714,27.142,-4.037,318.473,-1.576,0.014,1.97,1001.59,26.1779,48.23488,16.367449,306.452,535.1076609183506,,0.0,158.06451,,1 / 16,75003,2016-09-12 08:45:05:961
0.01033,0.29555,9.75372,-0.00235,0.26973,9.80294,0.00405,0.0088,-0.02815,-3.5E-4,6.3E-4,9.2E-4,6.54933,23.714,27.142,-4.037,318.473,-1.576,0.014,1.97,1001.59,27.602,48.23488,16.367449,306.452,535.1076609183506,,0.0,158.06451,,1 / 16,75503,2016-09-12 08:45:06:461
0.01033,0.29555,9.75372,-0.00235,0.26973,9.80294,0.00405,0.0088,-0.02815,-3.5E-4,6.3E-4,9.2E-4,6.54933,23.714,27.142,-4.037,318.473,-1.576,0.014,1.97,1001.59,26.429,48.23488,16.367449,306.452,535.1076609183506,,0.0,158.06451,,1 / 16,76002,2016-09-12 08:45:06:960
0.01033,0.29555,9.75372,-0.00235,0.26973,9.80294,0.00405,0.0088,-0.02815,-3.5E-4,6.3E-4,9.2E-4,6.54933,23.714,27.142,-4.037,318.473,-1.576,0.014,1.97,1001.59,23.894,48.23488,16.367449,306.452,535.1076609183506,,0.0,158.06451,,1 / 16,76503,2016-09-12 08:45:07:461
0.01033,0.29555,9.75372,-0.00235,0.26973,9.80294,0.00405,0.0088,-0.02815,-3.5E-4,6.3E-4,9.2E-4,6.54933,23.714,27.142,-4.037,318.473,-1.576,0.014,1.97,1001.59,30.1309,48.23488,16.367449,306.452,535.1076609183506,,0.0,158.06451,,1 / 16,77003,2016-09-12 08:45:07:961
0.01033,0.29555,9.75372,-0.00235,0.26973,9.80294,0.00405,0.0088,-0.02815,-3.5E-4,6.3E-4,9.2E-4,6.54933,23.714,27.142,-4.037,318.473,-1.576,0.014,1.97,1001.59,28.8281,48.23488,16.367449,306.452,535.1076609183506,,0.0,158.06451,,1 / 16,77503,2016-09-12 08:45:08:461
-0.0123,0.24565,9.83174,-0.00235,0.26973,9.80294,0.00405,0.0088,-0.02815,-3.5E-4,6.3E-4,9.2E-4,6.54933,23.714,27.142,-4.037,318.473,-1.576,0.014,1.97,1001.59,22.6026,48.23488,16.367449,306.452,535.1076609183506,,0.0,158.06451,,1 / 16,78002,2016-09-12 08:45:08:960
-0.0123,0.24565,9.83174,-0.00535,0.27029,9.80292,-0.00961,0.00647,0.01298,-3.1E-4,0.00166,-1.2E-4,6.54933,24.373,26.588,-5.063,318.504,-1.579,0.031,1.97,1001.59,25.0197,48.23488,16.367449,306.452,535.1076609183506,,0.0,158.06451,,1 / 16,78503,2016-09-12 08:45:09:461
-0.0123,0.24565,9.83174,-0.00535,0.27029,9.80292,-0.00961,0.00647,0.01298,-3.1E-4,0.00166,-1.2E-4,6.54933,24.373,26.588,-5.063,318.504,-1.579,0.031,1.97,1001.58,27.1346,48.23488,16.367449,306.452,535.1076609183506,,0.0,158.06451,,3 / 16,79002,2016-09-12 08:45:09:960
-0.0123,0.24565,9.83174,-0.00535,0.27029,9.80292,-0.00961,0.00647,0.01298,-3.1E-4,0.00166,-1.2E-4,6.54933,24.373,26.588,-5.063,318.504,-1.579,0.031,1.97,1001.58,27.0128,48.23488,16.367449,306.452,535.1076609183506,,0.0,158.06451,,3 / 16,79503,2016-09-12 08:45:10:461
-0.0123,0.24565,9.83174,-0.00535,0.27029,9.80292,-0.00961,0.00647,0.01298,-3.1E-4,0.00166,-1.2E-4,6.54933,24.373,26.588,-5.063,318.504,-1.579,0.031,1.97,1001.58,30.4583,48.23488,16.367449,306.452,535.1076609183506,,0.0,158.06451,,3 / 16,80002,2016-09-12 08:45:10:960
-0.0123,0.24565,9.83174,-0.00535,0.27029,9.80292,-0.00961,0.00647,0.01298,-3.1E-4,0.00166,-1.2E-4,6.54933,24.373,26.588,-5.063,318.504,-1.579,0.031,1.97,1001.58,28.4874,48.23488,16.367449,306.452,535.1076609183506,,0.0,158.06451,,3 / 16,80502,2016-09-12 08:45:11:460
-0.0123,0.24565,9.83174,-0.00535,0.27029,9.80292,-0.00961,0.00647,0.01298,-3.1E-4,0.00166,-1.2E-4,6.54933,24.373,26.588,-5.063,318.504,-1.579,0.031,1.97,1001.58,26.6805,48.23488,16.367449,306.452,535.1076609183506,,0.0,158.06451,,3 / 16,81003,2016-09-12 08:45:11:961
-0.0123,0.24565,9.83174,-0.00535,0.27029,9.80292,-0.00961,0.00647,0.01298,-3.1E-4,0.00166,-1.2E-4,6.54933,24.373,26.588,-5.063,318.504,-1.579,0.031,1.97,1001.58,27.5602,48.23488,16.367449,306.452,535.1076609183506,,0.0,158.06451,,3 / 16,81502,2016-09-12 08:45:12:460
-0.0123,0.24565,9.83174,-0.00535,0.27029,9.80292,-0.00961,0.00647,0.01298,-3.1E-4,0.00166,-1.2E-4,6.54933,24.373,26.588,-5.063,318.504,-1.579,0.031,1.97,1001.58,24.4752,48.23488,16.367449,306.452,535.1076609183506,,0.0,158.06451,,3 / 16,82003,2016-09-12 08:45:12:961
-0.0123,0.24565,9.83174,-0.00535,0.27029,9.80292,-0.00961,0.00647,0.01298,-3.1E-4,0.00166,-1.2E-4,6.54933,24.373,26.588,-5.063,318.504,-1.579,0.031,1.97,1001.58,30.0495,48.23488,16.367449,306.452,535.1076609183506,,0.0,158.06451,,3 / 16,82502,2016-09-12 08:45:13:460
-0.01657,0.25201,9.80425,-0.00535,0.27029,9.80292,-0.00961,0.00647,0.01298,-3.1E-4,0.00166,-1.2E-4,6.54933,24.373,26.588,-5.063,318.504,-1.579,0.031,1.97,1001.58,31.744,48.23488,16.367449,306.452,535.1076609183506,,0.0,158.06451,,3 / 16,83003,2016-09-12 08:45:13:961
-0.01657,0.25201,9.80425,-0.00322,0.26839,9.80298,-0.02047,-0.00691,-0.00533,-6.3E-4,6.0E-4,6.4E-4,6.54933,24.312,26.183,-3.769,317.402,-1.568,0.019,1.97,1001.58,29.8171,48.23488,16.367449,306.452,535.1076609183506,,0.0,158.06451,,3 / 15,83502,2016-09-12 08:45:14:460
-0.01657,0.25201,9.80425,-0.00322,0.26839,9.80298,-0.02047,-0.00691,-0.00533,-6.3E-4,6.0E-4,6.4E-4,6.54933,24.312,26.183,-3.769,317.402,-1.568,0.019,1.97,1001.58,26.9879,48.23488,16.367449,306.452,535.1076609183506,,0.0,158.06451,,4 / 16,84004,2016-09-12 08:45:14:962
-0.01657,0.25201,9.80425,-0.00322,0.26839,9.80298,-0.02047,-0.00691,-0.00533,-6.3E-4,6.0E-4,6.4E-4,6.54933,24.312,26.183,-3.769,317.402,-1.568,0.019,1.97,1001.58,27.8374,48.23488,16.367449,306.452,535.1076609183506,,0.0,158.06451,,4 / 16,84503,2016-09-12 08:45:15:461
-0.01657,0.25201,9.80425,-0.00322,0.26839,9.80298,-0.02047,-0.00691,-0.00533,-6.3E-4,6.0E-4,6.4E-4,6.54933,24.312,26.183,-3.769,317.402,-1.568,0.019,1.97,1001.58,27.7573,48.23488,16.367449,306.452,535.1076609183506,,0.0,158.06451,,4 / 16,85002,2016-09-12 08:45:15:960
-0.01657,0.25201,9.80425,-0.00322,0.26839,9.80298,-0.02047,-0.00691,-0.00533,-6.3E-4,6.0E-4,6.4E-4,6.54933,24.312,26.183,-3.769,317.402,-1.568,0.019,1.97,1001.58,28.9663,48.23488,16.367449,306.452,535.1076609183506,,0.0,158.06451,,4 / 16,85502,2016-09-12 08:45:16:460
-0.01657,0.25201,9.80425,-0.00322,0.26839,9.80298,-0.02047,-0.00691,-0.00533,-6.3E-4,6.0E-4,6.4E-4,6.54933,24.312,26.183,-3.769,317.402,-1.568,0.019,1.97,1001.58,29.243,48.23488,16.367449,306.452,535.1076609183506,,0.0,158.06451,,4 / 16,86002,2016-09-12 08:45:16:960
-0.01657,0.25201,9.80425,-0.00322,0.26839,9.80298,-0.02047,-0.00691,-0.00533,-6.3E-4,6.0E-4,6.4E-4,6.54933,24.312,26.183,-3.769,317.402,-1.568,0.019,1.97,1001.58,27.6773,48.23488,16.367449,306.452,535.1076609183506,,0.0,158.06451,,4 / 16,86502,2016-09-12 08:45:17:460
-0.01657,0.25201,9.80425,-0.00322,0.26839,9.80298,-0.02047,-0.00691,-0.00533,-6.3E-4,6.0E-4,6.4E-4,6.54933,24.312,26.183,-3.769,317.402,-1.568,0.019,1.97,1001.58,25.8158,48.23488,16.367449,306.452,535.1076609183506,,0.0,158.06451,,4 / 16,87003,2016-09-12 08:45:17:961
0.00331,0.29034,9.7476,-0.00322,0.26839,9.80298,-0.02047,-0.00691,-0.00533,-6.3E-4,6.0E-4,6.4E-4,6.54933,24.312,26.183,-3.769,317.402,-1.568,0.019,1.97,1001.58,26.8362,48.23488,16.367449,306.452,535.1076609183506,,0.0,158.06451,,4 / 16,87502,2016-09-12 08:45:18:460
0.00331,0.29034,9.7476,-0.00322,0.26839,9.80298,-0.02047,-0.00691,-0.00533,-6.3E-4,6.0E-4,6.4E-4,6.54933,24.312,26.183,-3.769,317.402,-1.568,0.019,1.97,1001.58,27.9769,48.23488,16.367449,306.452,535.1076609183506,,0.0,158.06451,,4 / 16,88005,2016-09-12 08:45:18:963
0.00331,0.29034,9.7476,-0.00106,0.27222,9.80287,0.00277,0.00151,-0.03059,5.6E-4,-2.9E-4,-1.2E-4,6.54933,24.548,24.562,-4.823,315.148,-1.591,0.006,1.97,1001.58,27.5392,48.23488,16.367449,306.452,535.1076609183506,,0.0,158.06451,,4 / 16,88502,2016-09-12 08:45:19:460
0.00331,0.29034,9.7476,-0.00106,0.27222,9.80287,0.00277,0.00151,-0.03059,5.6E-4,-2.9E-4,-1.2E-4,6.54933,24.548,24.562,-4.823,315.148,-1.591,0.006,1.97,1001.58,25.0155,48.23488,16.367449,306.452,535.1076609183506,,0.0,158.06451,,4 / 16,89002,2016-09-12 08:45:19:960
0.00331,0.29034,9.7476,-0.00106,0.27222,9.80287,0.00277,0.00151,-0.03059,5.6E-4,-2.9E-4,-1.2E-4,6.54933,24.548,24.562,-4.823,315.148,-1.591,0.006,1.97,1001.58,30.129,48.23488,16.367449,306.452,535.1076609183506,,0.0,158.06451,,4 / 16,89503,2016-09-12 08:45:20:461
0.00331,0.29034,9.7476,-0.00106,0.27222,9.80287,0.00277,0.00151,-0.03059,5.6E-4,-2.9E-4,-1.2E-4,6.54933,24.548,24.562,-4.823,315.148,-1.591,0.006,1.97,1001.58,26.1184,48.23488,16.367449,306.452,535.1076609183506,,0.0,158.06451,,4 / 16,90002,2016-09-12 08:45:20:960
0.00331,0.29034,9.7476,-0.00106,0.27222,9.80287,0.00277,0.00151,-0.03059,5.6E-4,-2.9E-4,-1.2E-4,6.54933,24.548,24.562,-4.823,315.148,-1.591,0.006,1.97,1001.58,31.9421,48.23488,16.367449,306.452,535.1076609183506,,0.0,158.06451,,4 / 16,90502,2016-09-12 08:45:21:460
0.00331,0.29034,9.7476,-0.00106,0.27222,9.80287,0.00277,0.00151,-0.03059,5.6E-4,-2.9E-4,-1.2E-4,6.54933,24.548,24.562,-4.823,315.148,-1.591,0.006,1.97,1001.58,27.9917,48.23488,16.367449,306.452,535.1076609183506,,0.0,158.06451,,4 / 16,91002,2016-09-12 08:45:21:960
0.00331,0.29034,9.7476,-0.00106,0.27222,9.80287,0.00277,0.00151,-0.03059,5.6E-4,-2.9E-4,-1.2E-4,6.54933,24.548,24.562,-4.823,315.148,-1.591,0.006,1.97,1001.58,30.7417,48.23488,16.367449,306.452,535.1076609183506,,0.0,158.06451,,4 / 16,91503,2016-09-12 08:45:22:461
0.00331,0.29034,9.7476,-0.00106,0.27222,9.80287,0.00277,0.00151,-0.03059,5.6E-4,-2.9E-4,-1.2E-4,6.54933,24.548,24.562,-4.823,315.148,-1.591,0.006,1.97,1001.58,27.2849,48.23488,16.367449,306.452,535.1076609183506,,0.0,158.06451,,4 / 16,92003,2016-09-12 08:45:22:961
0.01241,0.26318,9.76277,-0.00106,0.27222,9.80287,0.00277,0.00151,-0.03059,5.6E-4,-2.9E-4,-1.2E-4,6.54933,24.548,24.562,-4.823,315.148,-1.591,0.006,1.97,1001.58,30.1633,48.23488,16.367449,306.452,535.1076609183506,,0.0,158.06451,,4 / 16,92504,2016-09-12 08:45:23:462
0.01241,0.26318,9.76277,-0.00106,0.27222,9.80287,0.00277,0.00151,-0.03059,5.6E-4,-2.9E-4,-1.2E-4,6.54933,24.548,24.562,-4.823,315.148,-1.591,0.006,1.97,1001.58,29.3474,48.23488,16.367449,306.452,535.1076609183506,,0.0,158.06451,,4 / 16,93003,2016-09-12 08:45:23:961
0.01241,0.26318,9.76277,-0.00476,0.27273,9.80286,-0.0237,-0.00785,-0.01029,-8.9E-4,9.0E-5,-0.00119,6.54933,23.506,26.271,-5.338,317.435,-1.594,0.028,1.97,1001.58,28.5907,48.23488,16.367449,306.452,535.1076609183506,,0.0,158.06451,,4 / 16,93504,2016-09-12 08:45:24:462
0.01241,0.26318,9.76277,-0.00476,0.27273,9.80286,-0.0237,-0.00785,-0.01029,-8.9E-4,9.0E-5,-0.00119,6.54933,23.506,26.271,-5.338,317.435,-1.594,0.028,1.97,1001.59,28.5543,48.23488,16.367449,306.452,535.1076609183506,,0.0,158.06451,,4 / 16,94003,2016-09-12 08:45:24:961
0.01241,0.26318,9.76277,-0.00476,0.27273,9.80286,-0.0237,-0.00785,-0.01029,-8.9E-4,9.0E-5,-0.00119,6.54933,23.506,26.271,-5.338,317.435,-1.594,0.028,1.97,1001.59,30.542,48.23488,16.367449,306.452,535.1076609183506,,0.0,158.06451,,4 / 16,94503,2016-09-12 08:45:25:461
0.01241,0.26318,9.76277,-0.00476,0.27273,9.80286,-0.0237,-0.00785,-0.01029,-8.9E-4,9.0E-5,-0.00119,6.54933,23.506,26.271,-5.338,317.435,-1.594,0.028,1.97,1001.59,28.9854,48.23488,16.367449,306.452,535.1076609183506,,0.0,158.06451,,4 / 16,95002,2016-09-12 08:45:25:960
0.01241,0.26318,9.76277,-0.00476,0.27273,9.80286,-0.0237,-0.00785,-0.01029,-8.9E-4,9.0E-5,-0.00119,6.54933,23.506,26.271,-5.338,317.435,-1.594,0.028,1.97,1001.59,28.674,48.23488,16.367449,306.452,535.1076609183506,,0.0,158.06451,,4 / 16,95502,2016-09-12 08:45:26:460
0.01241,0.26318,9.76277,-0.00476,0.27273,9.80286,-0.0237,-0.00785,-0.01029,-8.9E-4,9.0E-5,-0.00119,6.54933,23.506,26.271,-5.338,317.435,-1.594,0.028,1.97,1001.59,28.9193,48.23488,16.367449,306.452,535.1076609183506,,0.0,158.06451,,4 / 16,96002,2016-09-12 08:45:26:960
0.01241,0.26318,9.76277,-0.00476,0.27273,9.80286,-0.0237,-0.00785,-0.01029,-8.9E-4,9.0E-5,-0.00119,6.54933,23.506,26.271,-5.338,317.435,-1.594,0.028,1.97,1001.59,30.404,48.23488,16.367449,306.452,535.1076609183506,,0.0,158.06451,,4 / 16,96502,2016-09-12 08:45:27:460
0.01241,0.26318,9.76277,-0.00476,0.27273,9.80286,-0.0237,-0.00785,-0.01029,-8.9E-4,9.0E-5,-0.00119,6.54933,23.506,26.271,-5.338,317.435,-1.594,0.028,1.97,1001.59,31.3261,48.23488,16.367449,306.452,535.1076609183506,,0.0,158.06451,,4 / 16,97002,2016-09-12 08:45:27:960
-0.01863,0.30582,9.77133,-0.00476,0.27273,9.80286,-0.0237,-0.00785,-0.01029,-8.9E-4,9.0E-5,-0.00119,6.54933,23.506,26.271,-5.338,317.435,-1.594,0.028,1.97,1001.59,31.4091,48.23488,16.367449,306.452,535.1076609183506,,0.0,158.06451,,4 / 16,97503,2016-09-12 08:45:28:461
-0.01863,0.30582,9.77133,-0.00476,0.27273,9.80286,-0.0237,-0.00785,-0.01029,-8.9E-4,9.0E-5,-0.00119,6.54933,23.506,26.271,-5.338,317.435,-1.594,0.028,1.97,1001.59,30.7549,48.23488,16.367449,306.452,535.1076609183506,,0.0,158.06451,,4 / 16,98003,2016-09-12 08:45:28:961
-0.01863,0.30582,9.77133,-0.0013,0.27481,9.8028,-1.6E-4,0.00646,-0.02253,-3.1E-4,-1.1E-4,2.6E-4,6.54933,23.354,25.74,-5.074,318.646,-1.606,0.008,1.97,1001.59,30.3342,48.23488,16.367449,306.452,535.1076609183506,,0.0,158.06451,,4 / 16,98503,2016-09-12 08:45:29:461
-0.01863,0.30582,9.77133,-0.0013,0.27481,9.8028,-1.6E-4,0.00646,-0.02253,-3.1E-4,-1.1E-4,2.6E-4,6.54933,23.354,25.74,-5.074,318.646,-1.606,0.008,1.97,1001.59,31.9115,48.23488,16.367449,306.452,535.1076609183506,,0.0,158.06451,,4 / 16,99003,2016-09-12 08:45:29:961
-0.01863,0.30582,9.77133,-0.0013,0.27481,9.8028,-1.6E-4,0.00646,-0.02253,-3.1E-4,-1.1E-4,2.6E-4,6.54933,23.354,25.74,-5.074,318.646,-1.606,0.008,1.97,1001.59,29.0949,48.23488,16.367449,306.452,535.1076609183506,,0.0,158.06451,,4 / 16,99502,2016-09-12 08:45:30:460
-0.01863,0.30582,9.77133,-0.0013,0.27481,9.8028,-1.6E-4,0.00646,-0.02253,-3.1E-4,-1.1E-4,2.6E-4,6.54933,23.354,25.74,-5.074,318.646,-1.606,0.008,1.97,1001.59,30.7675,48.23488,16.367449,306.452,535.1076609183506,,0.0,158.06451,,4 / 16,100003,2016-09-12 08:45:30:961
-0.01863,0.30582,9.77133,-0.0013,0.27481,9.8028,-1.6E-4,0.00646,-0.02253,-3.1E-4,-1.1E-4,2.6E-4,6.54933,23.354,25.74,-5.074,318.646,-1.606,0.008,1.97,1001.59,32.801,48.23488,16.367449,306.452,535.1076609183506,,0.0,158.06451,,4 / 16,100502,2016-09-12 08:45:31:460
-0.01863,0.30582,9.77133,-0.0013,0.27481,9.8028,-1.6E-4,0.00646,-0.02253,-3.1E-4,-1.1E-4,2.6E-4,6.54933,23.354,25.74,-5.074,318.646,-1.606,0.008,1.97,1001.59,27.64,48.23488,16.367449,306.452,535.1076609183506,,0.0,158.06451,,4 / 16,101003,2016-09-12 08:45:31:961
-0.01863,0.30582,9.77133,-0.0013,0.27481,9.8028,-1.6E-4,0.00646,-0.02253,-3.1E-4,-1.1E-4,2.6E-4,6.54933,23.354,25.74,-5.074,318.646,-1.606,0.008,1.97,1001.59,29.2471,48.23488,16.367449,306.452,535.1076609183506,,0.0,158.06451,,4 / 16,101502,2016-09-12 08:45:32:460
-0.01863,0.30582,9.77133,-0.0013,0.27481,9.8028,-1.6E-4,0.00646,-0.02253,-3.1E-4,-1.1E-4,2.6E-4,6.54933,23.354,25.74,-5.074,318.646,-1.606,0.008,1.97,1001.59,27.658,48.23488,16.367449,306.452,535.1076609183506,,0.0,158.06451,,4 / 16,102002,2016-09-12 08:45:32:960
-0.02148,0.27399,9.76329,-0.0013,0.27481,9.8028,-1.6E-4,0.00646,-0.02253,-3.1E-4,-1.1E-4,2.6E-4,6.54933,23.354,25.74,-5.074,318.646,-1.606,0.008,1.97,1001.59,29.0907,48.23488,16.367449,306.452,535.1076609183506,,0.0,158.06451,,4 / 16,102503,2016-09-12 08:45:33:461
-0.02148,0.27399,9.76329,-0.0013,0.27481,9.8028,-1.6E-4,0.00646,-0.02253,-3.1E-4,-1.1E-4,2.6E-4,6.54933,23.354,25.74,-5.074,318.646,-1.606,0.008,1.97,1001.59,28.2743,48.23488,16.367449,306.452,535.1076609183506,,0.0,158.06451,,4 / 16,103005,2016-09-12 08:45:33:963
-0.02148,0.27399,9.76329,-0.00325,0.27427,9.80281,9.8E-4,-0.00795,0.03299,-3.1E-4,-0.00154,1.4E-4,6.54933,23.909,25.104,-4.61,316.32,-1.603,0.019,1.97,1001.62,29.6219,48.23488,16.367449,306.452,535.1076609183506,,0.0,158.06451,,4 / 16,103502,2016-09-12 08:45:34:460
-0.02148,0.27399,9.76329,-0.00325,0.27427,9.80281,9.8E-4,-0.00795,0.03299,-3.1E-4,-0.00154,1.4E-4,6.54933,23.909,25.104,-4.61,316.32,-1.603,0.019,1.97,1001.62,27.6063,48.23488,16.367449,306.452,535.1076609183506,,0.0,158.06451,,4 / 16,104003,2016-09-12 08:45:34:961
-0.02148,0.27399,9.76329,-0.00325,0.27427,9.80281,9.8E-4,-0.00795,0.03299,-3.1E-4,-0.00154,1.4E-4,6.54933,23.909,25.104,-4.61,316.32,-1.603,0.019,1.97,1001.62,26.2475,48.23488,16.367449,306.452,535.1076609183506,,0.0,158.06451,,4 / 16,104502,2016-09-12 08:45:35:460
-0.02148,0.27399,9.76329,-0.00325,0.27427,9.80281,9.8E-4,-0.00795,0.03299,-3.1E-4,-0.00154,1.4E-4,6.54933,23.909,25.104,-4.61,316.32,-1.603,0.019,1.97,1001.62,27.28,48.23488,16.367449,306.452,535.1076609183506,,0.0,158.06451,,4 / 16,105002,2016-09-12 08:45:35:960
-0.02148,0.27399,9.76329,-0.00325,0.27427,9.80281,9.8E-4,-0.00795,0.03299,-3.1E-4,-0.00154,1.4E-4,6.54933,23.909,25.104,-4.61,316.32,-1.603,0.019,1.97,1001.62,32.4014,48.23488,16.367449,306.452,535.1076609183506,,0.0,158.06451,,4 / 16,105502,2016-09-12 08:45:36:460
-0.02148,0.27399,9.76329,-0.00325,0.27427,9.80281,9.8E-4,-0.00795,0.03299,-3.1E-4,-0.00154,1.4E-4,6.54933,23.909,25.104,-4.61,316.32,-1.603,0.019,1.97,1001.62,29.0244,48.23488,16.367449,306.452,535.1076609183506,,0.0,158.06451,,4 / 16,106003,2016-09-12 08:45:36:961
-0.02148,0.27399,9.76329,-0.00325,0.27427,9.80281,9.8E-4,-0.00795,0.03299,-3.1E-4,-0.00154,1.4E-4,6.54933,23.909,25.104,-4.61,316.32,-1.603,0.019,1.97,1001.62,28.097,48.23488,16.367449,306.452,535.1076609183506,,0.0,158.06451,,4 / 16,106502,2016-09-12 08:45:37:460
-0.02148,0.27399,9.76329,-0.00325,0.27427,9.80281,9.8E-4,-0.00795,0.03299,-3.1E-4,-0.00154,1.4E-4,6.54933,23.909,25.104,-4.61,316.32,-1.603,0.019,1.97,1001.62,30.7382,48.23488,16.367449,306.452,535.1076609183506,,0.0,158.06451,,4 / 16,107003,2016-09-12 08:45:37:961
0.00909,0.29311,9.76733,-0.00325,0.27427,9.80281,9.8E-4,-0.00795,0.03299,-3.1E-4,-0.00154,1.4E-4,6.54933,23.909,25.104,-4.61,316.32,-1.603,0.019,1.97,1001.62,31.6462,48.23488,16.367449,306.452,535.1076609183506,,0.0,158.06451,,4 / 16,107502,2016-09-12 08:45:38:460
0.00909,0.29311,9.76733,-0.00325,0.27427,9.80281,9.8E-4,-0.00795,0.03299,-3.1E-4,-0.00154,1.4E-4,6.54933,23.909,25.104,-4.61,316.32,-1.603,0.019,1.97,1001.62,32.3538,48.23488,16.367449,306.452,535.1076609183506,,0.0,158.06451,,4 / 16,108003,2016-09-12 08:45:38:961
0.00909,0.29311,9.76733,-0.01222,0.27263,9.80285,-0.01545,0.0136,0.01977,-3.1E-4,-7.0E-4,-0.00107,6.54933,23.73,26.245,-4.77,317.44,-1.593,0.071,1.97,1001.6,28.5324,48.23488,16.367449,306.452,535.1076609183506,,0.0,158.06451,,4 / 16,108503,2016-09-12 08:45:39:461
0.00909,0.29311,9.76733,-0.01222,0.27263,9.80285,-0.01545,0.0136,0.01977,-3.1E-4,-7.0E-4,-0.00107,6.54933,23.73,26.245,-4.77,317.44,-1.593,0.071,1.97,1001.6,31.0263,48.23488,16.367449,306.452,535.1076609183506,,0.0,158.06451,,4 / 16,109003,2016-09-12 08:45:39:961
0.00909,0.29311,9.76733,-0.01222,0.27263,9.80285,-0.01545,0.0136,0.01977,-3.1E-4,-7.0E-4,-0.00107,6.54933,23.73,26.245,-4.77,317.44,-1.593,0.071,1.97,1001.6,29.5591,48.23488,16.367449,306.452,535.1076609183506,,0.0,158.06451,,4 / 16,109502,2016-09-12 08:45:40:460
0.00909,0.29311,9.76733,-0.01222,0.27263,9.80285,-0.01545,0.0136,0.01977,-3.1E-4,-7.0E-4,-0.00107,6.54933,23.73,26.245,-4.77,317.44,-1.593,0.071,1.97,1001.6,29.1869,48.23488,16.367449,306.452,535.1076609183506,,0.0,158.06451,,4 / 16,110005,2016-09-12 08:45:40:963
0.00909,0.29311,9.76733,-0.01222,0.27263,9.80285,-0.01545,0.0136,0.01977,-3.1E-4,-7.0E-4,-0.00107,6.54933,23.73,26.245,-4.77,317.44,-1.593,0.071,1.97,1001.6,29.7118,48.23488,16.367449,306.452,535.1076609183506,,0.0,158.06451,,4 / 16,110502,2016-09-12 08:45:41:460
0.00909,0.29311,9.76733,-0.01222,0.27263,9.80285,-0.01545,0.0136,0.01977,-3.1E-4,-7.0E-4,-0.00107,6.54933,23.73,26.245,-4.77,317.44,-1.593,0.071,1.97,1001.6,29.6235,48.23488,16.367449,306.452,535.1076609183506,,0.0,158.06451,,4 / 16,111003,2016-09-12 08:45:41:961
0.00909,0.29311,9.76733,-0.01222,0.27263,9.80285,-0.01545,0.0136,0.01977,-3.1E-4,-7.0E-4,-0.00107,6.54933,23.73,26.245,-4.77,317.44,-1.593,0.071,1.97,1001.6,30.1444,48.23488,16.367449,306.452,535.1076609183506,,0.0,158.06451,,4 / 16,111503,2016-09-12 08:45:42:461
0.00909,0.29311,9.76733,-0.01222,0.27263,9.80285,-0.01545,0.0136,0.01977,-3.1E-4,-7.0E-4,-0.00107,6.54933,23.73,26.245,-4.77,317.44,-1.593,0.071,1.97,1001.6,27.2331,48.23488,16.367449,306.452,535.1076609183506,,0.0,158.06451,,4 / 16,112003,2016-09-12 08:45:42:961
-0.00543,0.29433,9.83374,-0.01222,0.27263,9.80285,-0.01545,0.0136,0.01977,-3.1E-4,-7.0E-4,-0.00107,6.54933,23.73,26.245,-4.77,317.44,-1.593,0.071,1.97,1001.6,31.4027,48.23488,16.367449,306.452,535.1076609183506,,0.0,158.06451,,4 / 16,112504,2016-09-12 08:45:43:462
-0.00543,0.29433,9.83374,-0.01222,0.27263,9.80285,-0.01545,0.0136,0.01977,-3.1E-4,-7.0E-4,-0.00107,6.54933,23.73,26.245,-4.77,317.44,-1.593,0.071,1.97,1001.6,31.6582,48.23488,16.367449,306.452,535.1076609183506,,0.0,158.06451,,4 / 16,113002,2016-09-12 08:45:43:960
-0.00543,0.29433,9.83374,-0.00673,0.27772,9.80271,-0.01697,0.00806,0.02845,7.8E-4,-0.00146,-1.4E-4,6.54933,22.505,25.114,-4.195,317.508,-1.623,0.039,1.97,1001.6,32.4908,48.23488,16.367449,306.452,535.1076609183506,,0.0,158.06451,,4 / 15,113503,2016-09-12 08:45:44:461
-0.00543,0.29433,9.83374,-0.00673,0.27772,9.80271,-0.01697,0.00806,0.02845,7.8E-4,-0.00146,-1.4E-4,6.54933,22.505,25.114,-4.195,317.508,-1.623,0.039,1.97,1001.6,31.0349,48.23488,16.367449,306.452,535.1076609183506,,0.0,158.06451,,4 / 15,114003,2016-09-12 08:45:44:961
-0.00543,0.29433,9.83374,-0.00673,0.27772,9.80271,-0.01697,0.00806,0.02845,7.8E-4,-0.00146,-1.4E-4,6.54933,22.505,25.114,-4.195,317.508,-1.623,0.039,1.97,1001.6,28.9816,48.23488,16.367449,306.452,535.1076609183506,,0.0,158.06451,,4 / 16,114503,2016-09-12 08:45:45:461
-0.00543,0.29433,9.83374,-0.00673,0.27772,9.80271,-0.01697,0.00806,0.02845,7.8E-4,-0.00146,-1.4E-4,6.54933,22.505,25.114,-4.195,317.508,-1.623,0.039,1.97,1001.6,28.297,48.23488,16.367449,306.452,535.1076609183506,,0.0,158.06451,,4 / 16,115003,2016-09-12 08:45:45:961
-0.00543,0.29433,9.83374,-0.00673,0.27772,9.80271,-0.01697,0.00806,0.02845,7.8E-4,-0.00146,-1.4E-4,6.54933,22.505,25.114,-4.195,317.508,-1.623,0.039,1.97,1001.6,26.8665,48.23488,16.367449,306.452,535.1076609183506,,0.0,158.06451,,4 / 16,115504,2016-09-12 08:45:46:462
-0.00543,0.29433,9.83374,-0.00673,0.27772,9.80271,-0.01697,0.00806,0.02845,7.8E-4,-0.00146,-1.4E-4,6.54933,22.505,25.114,-4.195,317.508,-1.623,0.039,1.97,1001.6,31.1912,48.23488,16.367449,306.452,535.1076609183506,,0.0,158.06451,,4 / 17,116003,2016-09-12 08:45:46:961
-0.00543,0.29433,9.83374,-0.00673,0.27772,9.80271,-0.01697,0.00806,0.02845,7.8E-4,-0.00146,-1.4E-4,6.54933,22.505,25.114,-4.195,317.508,-1.623,0.039,1.97,1001.6,29.6772,48.23488,16.367449,306.452,535.1076609183506,,0.0,158.06451,,4 / 17,116502,2016-09-12 08:45:47:460
-0.00543,0.29433,9.83374,-0.00673,0.27772,9.80271,-0.01697,0.00806,0.02845,7.8E-4,-0.00146,-1.4E-4,6.54933,22.505,25.114,-4.195,317.508,-1.623,0.039,1.97,1001.6,28.0017,48.23488,16.367449,306.452,535.1076609183506,,0.0,158.06451,,4 / 17,117002,2016-09-12 08:45:47:960
-0.01878,0.27335,9.77295,-0.00673,0.27772,9.80271,-0.01697,0.00806,0.02845,7.8E-4,-0.00146,-1.4E-4,6.54933,22.505,25.114,-4.195,317.508,-1.623,0.039,1.97,1001.6,30.9555,48.23488,16.367449,306.452,535.1076609183506,,0.0,158.06451,,4 / 17,117502,2016-09-12 08:45:48:460
-0.01878,0.27335,9.77295,-0.00673,0.27772,9.80271,-0.01697,0.00806,0.02845,7.8E-4,-0.00146,-1.4E-4,6.54933,22.505,25.114,-4.195,317.508,-1.623,0.039,1.97,1001.6,27.803,48.23488,16.367449,306.452,535.1076609183506,,0.0,158.06451,,4 / 17,118003,2016-09-12 08:45:48:961
-0.01878,0.27335,9.77295,-0.00935,0.27145,9.80289,-0.00404,-0.02623,-0.04673,-2.4E-4,-5.5E-4,-0.00111,6.54933,25.713,25.935,-4.707,315.147,-1.586,0.055,1.97,1001.6,26.3768,48.23488,16.367449,306.452,535.1076609183506,,0.0,158.06451,,4 / 17,118503,2016-09-12 08:45:49:461
-0.01878,0.27335,9.77295,-0.00935,0.27145,9.80289,-0.00404,-0.02623,-0.04673,-2.4E-4,-5.5E-4,-0.00111,6.54933,25.713,25.935,-4.707,315.147,-1.586,0.055,1.97,1001.6,29.4685,48.23488,16.367449,306.452,535.1076609183506,,0.0,158.06451,,4 / 17,119003,2016-09-12 08:45:49:961
-0.01878,0.27335,9.77295,-0.00935,0.27145,9.80289,-0.00404,-0.02623,-0.04673,-2.4E-4,-5.5E-4,-0.00111,6.54933,25.713,25.935,-4.707,315.147,-1.586,0.055,1.97,1001.6,24.6971,48.23488,16.367449,306.452,535.1076609183506,,0.0,158.06451,,4 / 17,119502,2016-09-12 08:45:50:460
-0.01878,0.27335,9.77295,-0.00935,0.27145,9.80289,-0.00404,-0.02623,-0.04673,-2.4E-4,-5.5E-4,-0.00111,6.54933,25.713,25.935,-4.707,315.147,-1.586,0.055,1.97,1001.6,28.9817,48.23488,16.367449,306.452,535.1076609183506,,0.0,158.06451,,4 / 17,120002,2016-09-12 08:45:50:960
-0.01878,0.27335,9.77295,-0.00935,0.27145,9.80289,-0.00404,-0.02623,-0.04673,-2.4E-4,-5.5E-4,-0.00111,6.54933,25.713,25.935,-4.707,315.147,-1.586,0.055,1.97,1001.6,29.8717,48.23488,16.367449,306.452,535.1076609183506,,0.0,158.06451,,4 / 17,120502,2016-09-12 08:45:51:460
-0.01878,0.27335,9.77295,-0.00935,0.27145,9.80289,-0.00404,-0.02623,-0.04673,-2.4E-4,-5.5E-4,-0.00111,6.54933,25.713,25.935,-4.707,315.147,-1.586,0.055,1.97,1001.6,32.0654,48.23488,16.367449,306.452,535.1076609183506,,0.0,158.06451,,4 / 17,121002,2016-09-12 08:45:51:960
-0.01878,0.27335,9.77295,-0.00935,0.27145,9.80289,-0.00404,-0.02623,-0.04673,-2.4E-4,-5.5E-4,-0.00111,6.54933,25.713,25.935,-4.707,315.147,-1.586,0.055,1.97,1001.6,27.806,48.23488,16.367449,306.452,535.1076609183506,,0.0,158.06451,,4 / 17,121502,2016-09-12 08:45:52:460
-0.01878,0.27335,9.77295,-0.00935,0.27145,9.80289,-0.00404,-0.02623,-0.04673,-2.4E-4,-5.5E-4,-0.00111,6.54933,25.713,25.935,-4.707,315.147,-1.586,0.055,1.97,1001.6,28.7834,48.23488,16.367449,306.452,535.1076609183506,,0.0,158.06451,,4 / 17,122003,2016-09-12 08:45:52:961
0.00255,0.26234,9.7879,-0.00935,0.27145,9.80289,-0.00404,-0.02623,-0.04673,-2.4E-4,-5.5E-4,-0.00111,6.54933,25.713,25.935,-4.707,315.147,-1.586,0.055,1.97,1001.6,28.3658,48.23488,16.367449,306.452,535.1076609183506,,0.0,158.06451,,4 / 18,122502,2016-09-12 08:45:53:460
0.00255,0.26234,9.7879,-8.3E-4,0.26907,9.80296,0.0081,-0.00673,0.00166,-2.4E-4,-5.5E-4,-0.00111,6.54933,25.713,25.935,-4.707,315.147,-1.586,0.055,1.97,1001.6,29.1629,48.23488,16.367449,306.452,535.1076609183506,,0.0,158.06451,,4 / 18,123002,2016-09-12 08:45:53:960
0.00255,0.26234,9.7879,-8.3E-4,0.26907,9.80296,0.0081,-0.00673,0.00166,7.6E-4,-0.00119,-1.2E-4,6.54933,23.709,26.561,-5.061,318.501,-1.572,0.005,1.97,1001.61,27.878,48.23488,16.367449,306.452,535.1076609183506,,0.0,158.06451,,4 / 18,123503,2016-09-12 08:45:54:461
0.00255,0.26234,9.7879,-8.3E-4,0.26907,9.80296,0.0081,-0.00673,0.00166,7.6E-4,-0.00119,-1.2E-4,6.54933,23.709,26.561,-5.061,318.501,-1.572,0.005,1.97,1001.61,28.222,48.23488,16.367449,306.452,535.1076609183506,,0.0,158.06451,,4 / 18,124003,2016-09-12 08:45:54:961
0.00255,0.26234,9.7879,-8.3E-4,0.26907,9.80296,0.0081,-0.00673,0.00166,7.6E-4,-0.00119,-1.2E-4,6.54933,23.709,26.561,-5.061,318.501,-1.572,0.005,1.97,1001.61,31.3761,48.23488,16.367449,306.452,535.1076609183506,,0.0,158.06451,,4 / 18,124503,2016-09-12 08:45:55:461
0.00255,0.26234,9.7879,-8.3E-4,0.26907,9.80296,0.0081,-0.00673,0.00166,7.6E-4,-0.00119,-1.2E-4,6.54933,23.709,26.561,-5.061,318.501,-1.572,0.005,1.97,1001.61,29.9687,48.23488,16.367449,306.452,535.1076609183506,,0.0,158.06451,,4 / 18,125002,2016-09-12 08:45:55:960
0.00255,0.26234,9.7879,-8.3E-4,0.26907,9.80296,0.0081,-0.00673,0.00166,7.6E-4,-0.00119,-1.2E-4,6.54933,23.709,26.561,-5.061,318.501,-1.572,0.005,1.97,1001.61,26.0046,48.23488,16.367449,306.452,535.1076609183506,,0.0,158.06451,,4 / 18,125502,2016-09-12 08:45:56:460
0.00255,0.26234,9.7879,-8.3E-4,0.26907,9.80296,0.0081,-0.00673,0.00166,7.6E-4,-0.00119,-1.2E-4,6.54933,23.709,26.561,-5.061,318.501,-1.572,0.005,1.97,1001.61,27.09,48.23488,16.367449,306.452,535.1076609183506,,0.0,158.06451,,4 / 18,126002,2016-09-12 08:45:56:960
0.00255,0.26234,9.7879,-8.3E-4,0.26907,9.80296,0.0081,-0.00673,0.00166,7.6E-4,-0.00119,-1.2E-4,6.54933,23.709,26.561,-5.061,318.501,-1.572,0.005,1.97,1001.61,29.6045,48.23488,16.367449,306.452,535.1076609183506,,0.0,158.06451,,4 / 18,126502,2016-09-12 08:45:57:460
0.00255,0.26234,9.7879,-8.3E-4,0.26907,9.80296,0.0081,-0.00673,0.00166,7.6E-4,-0.00119,-1.2E-4,6.54933,23.709,26.561,-5.061,318.501,-1.572,0.005,1.97,1001.61,29.8636,48.23488,16.367449,306.452,535.1076609183506,,0.0,158.06451,,4 / 18,127002,2016-09-12 08:45:57:960
-0.00314,0.26614,9.81192,-8.3E-4,0.26907,9.80296,0.0081,-0.00673,0.00166,7.6E-4,-0.00119,-1.2E-4,6.54933,23.709,26.561,-5.061,318.501,-1.572,0.005,1.97,1001.61,32.2333,48.23488,16.367449,306.452,535.1076609183506,,0.0,158.06451,,3 / 17,127502,2016-09-12 08:45:58:460
-0.00314,0.26614,9.81192,-0.00629,0.27084,9.80291,-0.01185,-0.01334,-0.00158,7.6E-4,-0.00119,-1.2E-4,6.54933,23.709,26.561,-5.061,318.501,-1.572,0.005,1.97,1001.61,27.3309,48.23488,16.367449,306.452,535.1076609183506,,0.0,158.06451,,3 / 17,128003,2016-09-12 08:45:58:961
-0.00314,0.26614,9.81192,-0.00629,0.27084,9.80291,-0.01185,-0.01334,-0.00158,7.6E-4,-7.9E-4,9.5E-4,6.54933,24.538,25.816,-2.513,316.206,-1.583,0.037,1.97,1001.6,31.7883,48.23488,16.367449,306.452,535.1076609183506,,0.0,158.06451,,3 / 16,128503,2016-09-12 08:45:59:461
-0.00314,0.26614,9.81192,-0.00629,0.27084,9.80291,-0.01185,-0.01334,-0.00158,7.6E-4,-7.9E-4,9.5E-4,6.54933,24.538,25.816,-2.513,316.206,-1.583,0.037,1.97,1001.6,27.4789,48.23488,16.367449,306.452,535.1076609183506,,0.0,158.06451,,3 / 16,129005,2016-09-12 08:45:59:963
-0.00314,0.26614,9.81192,-0.00629,0.27084,9.80291,-0.01185,-0.01334,-0.00158,7.6E-4,-7.9E-4,9.5E-4,6.54933,24.538,25.816,-2.513,316.206,-1.583,0.037,1.97,1001.6,29.446,48.23488,16.367449,306.452,535.1076609183506,,0.0,158.06451,,3 / 17,129503,2016-09-12 08:46:00:461
-0.00314,0.26614,9.81192,-0.00629,0.27084,9.80291,-0.01185,-0.01334,-0.00158,7.6E-4,-7.9E-4,9.5E-4,6.54933,24.538,25.816,-2.513,316.206,-1.583,0.037,1.97,1001.6,30.5698,48.23488,16.367449,306.452,535.1076609183506,,0.0,158.06451,,4 / 17,130002,2016-09-12 08:46:00:960
-0.00314,0.26614,9.81192,-0.00629,0.27084,9.80291,-0.01185,-0.01334,-0.00158,7.6E-4,-7.9E-4,9.5E-4,6.54933,24.538,25.816,-2.513,316.206,-1.583,0.037,1.97,1001.6,30.4326,48.23488,16.367449,306.452,535.1076609183506,,0.0,158.06451,,4 / 17,130504,2016-09-12 08:46:01:462
-0.00314,0.26614,9.81192,-0.00629,0.27084,9.80291,-0.01185,-0.01334,-0.00158,7.6E-4,-7.9E-4,9.5E-4,6.54933,24.538,25.816,-2.513,316.206,-1.583,0.037,1.97,1001.6,31.3816,48.23488,16.367449,306.452,535.1076609183506,,0.0,158.06451,,4 / 17,131003,2016-09-12 08:46:01:961
-0.00314,0.26614,9.81192,-0.00629,0.27084,9.80291,-0.01185,-0.01334,-0.00158,7.6E-4,-7.9E-4,9.5E-4,6.54933,24.538,25.816,-2.513,316.206,-1.583,0.037,1.97,1001.6,32.8162,48.23488,16.367449,306.452,535.1076609183506,,0.0,158.06451,,4 / 17,131502,2016-09-12 08:46:02:460
-0.00314,0.26614,9.81192,-0.00629,0.27084,9.80291,-0.01185,-0.01334,-0.00158,7.6E-4,-7.9E-4,9.5E-4,6.54933,24.538,25.816,-2.513,316.206,-1.583,0.037,1.97,1001.6,30.9661,48.23488,16.367449,306.452,535.1076609183506,,0.0,158.06451,,4 / 17,132002,2016-09-12 08:46:02:960
-0.03343,0.25339,9.76025,-0.00629,0.27084,9.80291,-0.01185,-0.01334,-0.00158,7.6E-4,-7.9E-4,9.5E-4,6.54933,24.538,25.816,-2.513,316.206,-1.583,0.037,1.97,1001.6,33.6021,48.23488,16.367449,306.452,535.1076609183506,,0.0,158.06451,,4 / 17,132503,2016-09-12 08:46:03:461
-0.03343,0.25339,9.76025,-0.00924,0.26985,9.80293,-0.01207,-0.02247,0.01918,-2.1E-4,7.8E-4,-3.1E-4,6.54933,24.538,25.816,-2.513,316.206,-1.583,0.037,1.97,1001.6,30.5704,48.23488,16.367449,306.452,535.1076609183506,,0.0,158.06451,,4 / 17,133003,2016-09-12 08:46:03:961
-0.03343,0.25339,9.76025,-0.00924,0.26985,9.80293,-0.01207,-0.02247,0.01918,-2.1E-4,7.8E-4,-3.1E-4,6.54933,23.427,25.269,-5.103,317.538,-1.577,0.054,1.97,1001.61,31.3051,48.23488,16.367449,306.452,535.1076609183506,,0.0,158.06451,,4 / 17,133503,2016-09-12 08:46:04:461
-0.03343,0.25339,9.76025,-0.00924,0.26985,9.80293,-0.01207,-0.02247,0.01918,-2.1E-4,7.8E-4,-3.1E-4,6.54933,23.427,25.269,-5.103,317.538,-1.577,0.054,1.97,1001.61,30.1576,48.23488,16.367449,306.452,535.1076609183506,,0.0,158.06451,,4 / 17,134002,2016-09-12 08:46:04:960
-0.03343,0.25339,9.76025,-0.00924,0.26985,9.80293,-0.01207,-0.02247,0.01918,-2.1E-4,7.8E-4,-3.1E-4,6.54933,23.427,25.269,-5.103,317.538,-1.577,0.054,1.97,1001.61,31.8377,48.23488,16.367449,306.452,535.1076609183506,,0.0,158.06451,,4 / 17,134502,2016-09-12 08:46:05:460
-0.03343,0.25339,9.76025,-0.00924,0.26985,9.80293,-0.01207,-0.02247,0.01918,-2.1E-4,7.8E-4,-3.1E-4,6.54933,23.427,25.269,-5.103,317.538,-1.577,0.054,1.97,1001.61,29.5868,48.23488,16.367449,306.452,535.1076609183506,,0.0,158.06451,,4 / 17,135003,2016-09-12 08:46:05:961
-0.03343,0.25339,9.76025,-0.00924,0.26985,9.80293,-0.01207,-0.02247,0.01918,-2.1E-4,7.8E-4,-3.1E-4,6.54933,23.427,25.269,-5.103,317.538,-1.577,0.054,1.97,1001.61,27.3816,48.23488,16.367449,306.452,535.1076609183506,,0.0,158.06451,,4 / 17,135503,2016-09-12 08:46:06:461
-0.03343,0.25339,9.76025,-0.00924,0.26985,9.80293,-0.01207,-0.02247,0.01918,-2.1E-4,7.8E-4,-3.1E-4,6.54933,23.427,25.269,-5.103,317.538,-1.577,0.054,1.97,1001.61,29.988,48.23488,16.367449,306.452,535.1076609183506,,0.0,158.06451,,4 / 17,136005,2016-09-12 08:46:06:963
-0.03343,0.25339,9.76025,-0.00924,0.26985,9.80293,-0.01207,-0.02247,0.01918,-2.1E-4,7.8E-4,-3.1E-4,6.54933,23.427,25.269,-5.103,317.538,-1.577,0.054,1.97,1001.61,31.6549,48.23488,16.367449,306.452,535.1076609183506,,0.0,158.06451,,4 / 17,136502,2016-09-12 08:46:07:460
-0.02185,0.25899,9.80013,-0.00924,0.26985,9.80293,-0.01207,-0.02247,0.01918,-2.1E-4,7.8E-4,-3.1E-4,6.54933,23.427,25.269,-5.103,317.538,-1.577,0.054,1.97,1001.61,31.6017,48.23488,16.367449,306.452,535.1076609183506,,0.0,158.06451,,4 / 17,137002,2016-09-12 08:46:07:960
-0.02185,0.25899,9.80013,-0.00924,0.26985,9.80293,-0.01207,-0.02247,0.01918,-2.1E-4,7.8E-4,-3.1E-4,6.54933,23.427,25.269,-5.103,317.538,-1.577,0.054,1.97,1001.61,34.7899,48.23488,16.367449,306.452,535.1076609183506,,0.0,158.06451,,4 / 17,137502,2016-09-12 08:46:08:460
-0.02185,0.25899,9.80013,8.6E-4,0.27515,9.80279,0.01354,-0.03246,0.03265,6.7E-4,-0.00131,7.6E-4,6.54933,23.427,25.269,-5.103,317.538,-1.577,0.054,1.97,1001.61,32.4909,48.23488,16.367449,306.452,535.1076609183506,,0.0,158.06451,,4 / 17,138003,2016-09-12 08:46:08:961
-0.02185,0.25899,9.80013,8.6E-4,0.27515,9.80279,0.01354,-0.03246,0.03265,6.7E-4,-0.00131,7.6E-4,6.54933,24.051,25.711,-4.41,317.402,-1.608,-0.005,1.97,1001.6,25.223,48.23488,16.367449,306.452,535.1076609183506,,0.0,158.06451,,4 / 17,138502,2016-09-12 08:46:09:460
-0.02185,0.25899,9.80013,8.6E-4,0.27515,9.80279,0.01354,-0.03246,0.03265,6.7E-4,-0.00131,7.6E-4,6.54933,24.051,25.711,-4.41,317.402,-1.608,-0.005,1.97,1001.6,28.4924,48.23488,16.367449,306.452,535.1076609183506,,0.0,158.06451,,4 / 17,139003,2016-09-12 08:46:09:961
-0.02185,0.25899,9.80013,8.6E-4,0.27515,9.80279,0.01354,-0.03246,0.03265,6.7E-4,-0.00131,7.6E-4,6.54933,24.051,25.711,-4.41,317.402,-1.608,-0.005,1.97,1001.6,32.0529,48.23488,16.367449,306.452,535.1076609183506,,0.0,158.06451,,4 / 17,139502,2016-09-12 08:46:10:460
-0.02185,0.25899,9.80013,8.6E-4,0.27515,9.80279,0.01354,-0.03246,0.03265,6.7E-4,-0.00131,7.6E-4,6.54933,24.051,25.711,-4.41,317.402,-1.608,-0.005,1.97,1001.6,31.4486,48.23488,16.367449,306.452,535.1076609183506,,0.0,158.06451,,4 / 17,140002,2016-09-12 08:46:10:960
-0.02185,0.25899,9.80013,8.6E-4,0.27515,9.80279,0.01354,-0.03246,0.03265,6.7E-4,-0.00131,7.6E-4,6.54933,24.051,25.711,-4.41,317.402,-1.608,-0.005,1.97,1001.6,30.8586,48.23488,16.367449,306.452,535.1076609183506,,0.0,158.06451,,4 / 17,140507,2016-09-12 08:46:11:465
-0.02185,0.25899,9.80013,8.6E-4,0.27515,9.80279,0.01354,-0.03246,0.03265,6.7E-4,-0.00131,7.6E-4,6.54933,24.051,25.711,-4.41,317.402,-1.608,-0.005,1.97,1001.6,33.3629,48.23488,16.367449,306.452,535.1076609183506,,0.0,158.06451,,4 / 17,141002,2016-09-12 08:46:11:960
-0.02185,0.25899,9.80013,8.6E-4,0.27515,9.80279,0.01354,-0.03246,0.03265,6.7E-4,-0.00131,7.6E-4,6.54933,24.051,25.711,-4.41,317.402,-1.608,-0.005,1.97,1001.6,25.5802,48.23488,16.367449,306.452,535.1076609183506,,0.0,158.06451,,4 / 17,141506,2016-09-12 08:46:12:464
-0.0162,0.29128,9.81834,8.6E-4,0.27515,9.80279,0.01354,-0.03246,0.03265,6.7E-4,-0.00131,7.6E-4,6.54933,24.051,25.711,-4.41,317.402,-1.608,-0.005,1.97,1001.6,31.1195,48.23488,16.367449,306.452,535.1076609183506,,0.0,158.06451,,4 / 17,142002,2016-09-12 08:46:12:960
-0.0162,0.29128,9.81834,8.6E-4,0.27515,9.80279,0.01354,-0.03246,0.03265,6.7E-4,-0.00131,7.6E-4,6.54933,24.051,25.711,-4.41,317.402,-1.608,-0.005,1.97,1001.6,33.4622,48.23488,16.367449,306.452,535.1076609183506,,0.0,158.06451,,4 / 17,142504,2016-09-12 08:46:13:462
-0.0162,0.29128,9.81834,0.00482,0.27272,9.80286,0.01832,0.0031,0.03286,-0.00114,7.8E-4,8.0E-5,6.54933,24.051,25.711,-4.41,317.402,-1.608,-0.005,1.97,1001.6,31.0147,48.23488,16.367449,306.452,535.1076609183506,,0.0,158.06451,,4 / 17,143003,2016-09-12 08:46:13:961
-0.0162,0.29128,9.81834,0.00482,0.27272,9.80286,0.01832,0.0031,0.03286,-0.00114,7.8E-4,8.0E-5,6.54933,24.176,25.912,-4.434,317.399,-1.594,-0.028,1.97,1001.59,30.224,48.23488,16.367449,306.452,535.1076609183506,,0.0,158.06451,,4 / 17,143502,2016-09-12 08:46:14:460
-0.0162,0.29128,9.81834,0.00482,0.27272,9.80286,0.01832,0.0031,0.03286,-0.00114,7.8E-4,8.0E-5,6.54933,24.176,25.912,-4.434,317.399,-1.594,-0.028,1.97,1001.59,29.0256,48.23488,16.367449,306.452,535.1076609183506,,0.0,158.06451,,4 / 17,144003,2016-09-12 08:46:14:961
-0.0162,0.29128,9.81834,0.00482,0.27272,9.80286,0.01832,0.0031,0.03286,-0.00114,7.8E-4,8.0E-5,6.54933,24.176,25.912,-4.434,317.399,-1.594,-0.028,1.97,1001.59,30.6487,48.23488,16.367449,306.452,535.1076609183506,,0.0,158.06451,,4 / 17,144502,2016-09-12 08:46:15:460
-0.0162,0.29128,9.81834,0.00482,0.27272,9.80286,0.01832,0.0031,0.03286,-0.00114,7.8E-4,8.0E-5,6.54933,24.176,25.912,-4.434,317.399,-1.594,-0.028,1.97,1001.59,29.4915,48.23488,16.367449,306.452,535.1076609183506,,0.0,158.06451,,4 / 17,145003,2016-09-12 08:46:15:961
-0.0162,0.29128,9.81834,0.00482,0.27272,9.80286,0.01832,0.0031,0.03286,-0.00114,7.8E-4,8.0E-5,6.54933,24.176,25.912,-4.434,317.399,-1.594,-0.028,1.97,1001.59,24.0332,48.23488,16.367449,306.452,535.1076609183506,,0.0,158.06451,,4 / 17,145502,2016-09-12 08:46:16:460
-0.0162,0.29128,9.81834,0.00482,0.27272,9.80286,0.01832,0.0031,0.03286,-0.00114,7.8E-4,8.0E-5,6.54933,24.176,25.912,-4.434,317.399,-1.594,-0.028,1.97,1001.59,28.1795,48.23488,16.367449,306.452,535.1076609183506,,0.0,158.06451,,4 / 17,146003,2016-09-12 08:46:16:961
-0.0162,0.29128,9.81834,0.00482,0.27272,9.80286,0.01832,0.0031,0.03286,-0.00114,7.8E-4,8.0E-5,6.54933,24.176,25.912,-4.434,317.399,-1.594,-0.028,1.97,1001.59,35.1445,48.23488,16.367449,306.452,535.1076609183506,,0.0,158.06451,,4 / 17,146502,2016-09-12 08:46:17:460
-6.1E-4,0.26363,9.81885,0.00482,0.27272,9.80286,0.01832,0.0031,0.03286,-0.00114,7.8E-4,8.0E-5,6.54933,24.176,25.912,-4.434,317.399,-1.594,-0.028,1.97,1001.59,29.5066,48.23488,16.367449,306.452,535.1076609183506,,0.0,158.06451,,4 / 17,147002,2016-09-12 08:46:17:960
-6.1E-4,0.26363,9.81885,0.00482,0.27272,9.80286,0.01832,0.0031,0.03286,-0.00114,7.8E-4,8.0E-5,6.54933,24.176,25.912,-4.434,317.399,-1.594,-0.028,1.97,1001.59,30.4613,48.23488,16.367449,306.452,535.1076609183506,,0.0,158.06451,,4 / 17,147503,2016-09-12 08:46:18:461
-6.1E-4,0.26363,9.81885,-5.8E-4,0.27305,9.80285,0.02054,0.00522,-0.01623,6.3E-4,7.8E-4,7.6E-4,6.54933,24.176,25.912,-4.434,317.399,-1.594,-0.028,1.97,1001.59,33.1594,48.23488,16.367449,306.452,535.1076609183506,,0.0,158.06451,,4 / 17,148003,2016-09-12 08:46:18:961
-6.1E-4,0.26363,9.81885,-5.8E-4,0.27305,9.80285,0.02054,0.00522,-0.01623,6.3E-4,7.8E-4,7.6E-4,6.54933,23.779,26.544,-4.277,318.473,-1.596,0.003,1.97,1001.615,29.7341,48.23488,16.367449,306.452,535.1076609183506,,0.0,158.06451,,4 / 17,148503,2016-09-12 08:46:19:461
-6.1E-4,0.26363,9.81885,-5.8E-4,0.27305,9.80285,0.02054,0.00522,-0.01623,6.3E-4,7.8E-4,7.6E-4,6.54933,23.779,26.544,-4.277,318.473,-1.596,0.003,1.97,1001.615,29.3353,48.23488,16.367449,306.452,535.1076609183506,,0.0,158.06451,,4 / 17,149003,2016-09-12 08:46:19:961
-6.1E-4,0.26363,9.81885,-5.8E-4,0.27305,9.80285,0.02054,0.00522,-0.01623,6.3E-4,7.8E-4,7.6E-4,6.54933,23.779,26.544,-4.277,318.473,-1.596,0.003,1.97,1001.615,32.5242,48.23488,16.367449,306.452,535.1076609183506,,0.0,158.06451,,4 / 17,149503,2016-09-12 08:46:20:461
-6.1E-4,0.26363,9.81885,-5.8E-4,0.27305,9.80285,0.02054,0.00522,-0.01623,6.3E-4,7.8E-4,7.6E-4,6.54933,23.779,26.544,-4.277,318.473,-1.596,0.003,1.97,1001.615,34.0557,48.23488,16.367449,306.452,535.1076609183506,,0.0,158.06451,,4 / 17,150002,2016-09-12 08:46:20:960
-6.1E-4,0.26363,9.81885,-5.8E-4,0.27305,9.80285,0.02054,0.00522,-0.01623,6.3E-4,7.8E-4,7.6E-4,6.54933,23.779,26.544,-4.277,318.473,-1.596,0.003,1.97,1001.615,33.5604,48.23488,16.367449,306.452,535.1076609183506,,0.0,158.06451,,4 / 17,150505,2016-09-12 08:46:21:463
-6.1E-4,0.26363,9.81885,-5.8E-4,0.27305,9.80285,0.02054,0.00522,-0.01623,6.3E-4,7.8E-4,7.6E-4,6.54933,23.779,26.544,-4.277,318.473,-1.596,0.003,1.97,1001.615,32.1084,48.23488,16.367449,306.452,535.1076609183506,,0.0,158.06451,,4 / 16,151002,2016-09-12 08:46:21:960
-6.1E-4,0.26363,9.81885,-5.8E-4,0.27305,9.80285,0.02054,0.00522,-0.01623,6.3E-4,7.8E-4,7.6E-4,6.54933,23.779,26.544,-4.277,318.473,-1.596,0.003,1.97,1001.615,30.4638,48.23488,16.367449,306.452,535.1076609183506,,0.0,158.06451,,4 / 16,151502,2016-09-12 08:46:22:460
0.0152,0.29706,9.78885,-5.8E-4,0.27305,9.80285,0.02054,0.00522,-0.01623,6.3E-4,7.8E-4,7.6E-4,6.54933,23.779,26.544,-4.277,318.473,-1.596,0.003,1.97,1001.615,31.1122,48.23488,16.367449,306.452,535.1076609183506,,0.0,158.06451,,4 / 16,152002,2016-09-12 08:46:22:960
0.0152,0.29706,9.78885,-5.8E-4,0.27305,9.80285,0.02054,0.00522,-0.01623,6.3E-4,7.8E-4,7.6E-4,6.54933,23.779,26.544,-4.277,318.473,-1.596,0.003,1.97,1001.615,31.2365,48.23488,16.367449,306.452,535.1076609183506,,0.0,158.06451,,4 / 13,152503,2016-09-12 08:46:23:461
0.0152,0.29706,9.78885,-0.00677,0.2705,9.80292,-0.01058,-0.01117,0.01393,-3.1E-4,-1.5E-4,-1.5E-4,6.54933,23.779,26.544,-4.277,318.473,-1.596,0.003,1.97,1001.615,32.2933,48.23488,16.367449,306.452,535.1076609183506,,0.0,158.06451,,4 / 13,153003,2016-09-12 08:46:23:961
0.0152,0.29706,9.78885,-0.00677,0.2705,9.80292,-0.01058,-0.01117,0.01393,-3.1E-4,-1.5E-4,-1.5E-4,6.54933,23.824,25.357,-4.37,316.288,-1.581,0.04,1.97,1001.61,32.986,48.23488,16.367449,306.452,535.1076609183506,,0.0,158.06451,,4 / 17,153504,2016-09-12 08:46:24:462
0.0152,0.29706,9.78885,-0.00677,0.2705,9.80292,-0.01058,-0.01117,0.01393,-3.1E-4,-1.5E-4,-1.5E-4,6.54933,23.824,25.357,-4.37,316.288,-1.581,0.04,1.97,1001.61,27.8272,48.23488,16.367449,306.452,535.1076609183506,,0.0,158.06451,,4 / 17,154002,2016-09-12 08:46:24:960
0.0152,0.29706,9.78885,-0.00677,0.2705,9.80292,-0.01058,-0.01117,0.01393,-3.1E-4,-1.5E-4,-1.5E-4,6.54933,23.824,25.357,-4.37,316.288,-1.581,0.04,1.97,1001.61,28.7503,48.23488,16.367449,306.452,535.1076609183506,,0.0,158.06451,,4 / 17,154502,2016-09-12 08:46:25:460
0.0152,0.29706,9.78885,-0.00677,0.2705,9.80292,-0.01058,-0.01117,0.01393,-3.1E-4,-1.5E-4,-1.5E-4,6.54933,23.824,25.357,-4.37,316.288,-1.581,0.04,1.97,1001.61,27.8158,48.23488,16.367449,306.452,535.1076609183506,,0.0,158.06451,,4 / 17,155002,2016-09-12 08:46:25:960
0.0152,0.29706,9.78885,-0.00677,0.2705,9.80292,-0.01058,-0.01117,0.01393,-3.1E-4,-1.5E-4,-1.5E-4,6.54933,23.824,25.357,-4.37,316.288,-1.581,0.04,1.97,1001.61,31.752,48.23488,16.367449,306.452,535.1076609183506,,0.0,158.06451,,4 / 17,155502,2016-09-12 08:46:26:460
0.0152,0.29706,9.78885,-0.00677,0.2705,9.80292,-0.01058,-0.01117,0.01393,-3.1E-4,-1.5E-4,-1.5E-4,6.54933,23.824,25.357,-4.37,316.288,-1.581,0.04,1.97,1001.61,34.22,48.23488,16.367449,306.452,535.1076609183506,,0.0,158.06451,,4 / 17,156002,2016-09-12 08:46:26:960
0.0152,0.29706,9.78885,-0.00677,0.2705,9.80292,-0.01058,-0.01117,0.01393,-3.1E-4,-1.5E-4,-1.5E-4,6.54933,23.824,25.357,-4.37,316.288,-1.581,0.04,1.97,1001.61,31.2976,48.23488,16.367449,306.452,535.1076609183506,,0.0,158.06451,,4 / 17,156502,2016-09-12 08:46:27:460
0.01361,0.25514,9.78226,-0.00677,0.2705,9.80292,-0.01058,-0.01117,0.01393,-3.1E-4,-1.5E-4,-1.5E-4,6.54933,23.824,25.357,-4.37,316.288,-1.581,0.04,1.97,1001.61,29.0743,48.23488,16.367449,306.452,535.1076609183506,,0.0,158.06451,,4 / 17,157003,2016-09-12 08:46:27:961
0.01361,0.25514,9.78226,-0.00677,0.2705,9.80292,-0.01058,-0.01117,0.01393,-3.1E-4,-1.5E-4,-1.5E-4,6.54933,23.824,25.357,-4.37,316.288,-1.581,0.04,1.97,1001.61,34.6405,48.23488,16.367449,306.452,535.1076609183506,,0.0,158.06451,,4 / 17,157503,2016-09-12 08:46:28:461
0.01361,0.25514,9.78226,-0.00543,0.26982,9.80294,0.00634,-4.4E-4,0.01668,6.3E-4,-2.7E-4,-2.7E-4,6.54933,23.824,25.357,-4.37,316.288,-1.581,0.04,1.97,1001.61,33.6937,48.23488,16.367449,306.452,535.1076609183506,,0.0,158.06451,,4 / 17,158003,2016-09-12 08:46:28:961
0.01361,0.25514,9.78226,-0.00543,0.26982,9.80294,0.00634,-4.4E-4,0.01668,6.3E-4,-2.7E-4,-2.7E-4,6.54933,22.568,25.935,-5.051,318.647,-1.577,0.032,1.97,1001.6,34.9027,48.23488,16.367449,306.452,535.1076609183506,,0.0,158.06451,,3 / 16,158502,2016-09-12 08:46:29:460
0.01361,0.25514,9.78226,-0.00543,0.26982,9.80294,0.00634,-4.4E-4,0.01668,6.3E-4,-2.7E-4,-2.7E-4,6.54933,22.568,25.935,-5.051,318.647,-1.577,0.032,1.97,1001.6,31.666,48.23488,16.367449,306.452,535.1076609183506,,0.0,158.06451,,3 / 16,159003,2016-09-12 08:46:29:961
0.01361,0.25514,9.78226,-0.00543,0.26982,9.80294,0.00634,-4.4E-4,0.01668,6.3E-4,-2.7E-4,-2.7E-4,6.54933,22.568,25.935,-5.051,318.647,-1.577,0.032,1.97,1001.6,28.8557,48.23488,16.367449,306.452,535.1076609183506,,0.0,158.06451,,3 / 15,159502,2016-09-12 08:46:30:460
0.01361,0.25514,9.78226,-0.00543,0.26982,9.80294,0.00634,-4.4E-4,0.01668,6.3E-4,-2.7E-4,-2.7E-4,6.54933,22.568,25.935,-5.051,318.647,-1.577,0.032,1.97,1001.6,33.5209,48.23488,16.367449,306.452,535.1076609183506,,0.0,158.06451,,3 / 16,160003,2016-09-12 08:46:30:961
0.01361,0.25514,9.78226,-0.00543,0.26982,9.80294,0.00634,-4.4E-4,0.01668,6.3E-4,-2.7E-4,-2.7E-4,6.54933,22.568,25.935,-5.051,318.647,-1.577,0.032,1.97,1001.6,31.7515,48.23488,16.367449,306.452,535.1076609183506,,0.0,158.06451,,3 / 16,160508,2016-09-12 08:46:31:466
0.01361,0.25514,9.78226,-0.00543,0.26982,9.80294,0.00634,-4.4E-4,0.01668,6.3E-4,-2.7E-4,-2.7E-4,6.54933,22.568,25.935,-5.051,318.647,-1.577,0.032,1.97,1001.6,33.4781,48.23488,16.367449,306.452,535.1076609183506,,0.0,158.06451,,3 / 16,161002,2016-09-12 08:46:31:960
0.01361,0.25514,9.78226,-0.00543,0.26982,9.80294,0.00634,-4.4E-4,0.01668,6.3E-4,-2.7E-4,-2.7E-4,6.54933,22.568,25.935,-5.051,318.647,-1.577,0.032,1.97,1001.6,31.5402,48.23488,16.367449,306.452,535.1076609183506,,0.0,158.06451,,3 / 16,161506,2016-09-12 08:46:32:464
-0.07324,0.24892,9.85414,-0.00543,0.26982,9.80294,0.00634,-4.4E-4,0.01668,6.3E-4,-2.7E-4,-2.7E-4,6.54933,22.568,25.935,-5.051,318.647,-1.577,0.032,1.97,1001.6,29.461,48.23488,16.367449,306.452,535.1076609183506,,0.0,158.06451,,3 / 16,162002,2016-09-12 08:46:32:960
-0.07324,0.24892,9.85414,-0.00543,0.26982,9.80294,0.00634,-4.4E-4,0.01668,6.3E-4,-2.7E-4,-2.7E-4,6.54933,22.568,25.935,-5.051,318.647,-1.577,0.032,1.97,1001.6,32.3546,48.23488,16.367449,306.452,535.1076609183506,,0.0,158.06451,,3 / 16,162502,2016-09-12 08:46:33:460
-0.07324,0.24892,9.85414,-0.00225,0.27549,9.80278,0.01824,0.00992,0.00963,6.3E-4,-0.00233,-3.5E-4,6.54933,22.568,25.935,-5.051,318.647,-1.577,0.032,1.97,1001.6,32.5338,48.23488,16.367449,306.452,535.1076609183506,,0.0,158.06451,,3 / 16,163004,2016-09-12 08:46:33:962
-0.07324,0.24892,9.85414,-0.00225,0.27549,9.80278,0.01824,0.00992,0.00963,6.3E-4,-0.00233,-3.5E-4,6.54933,23.315,26.233,-5.725,318.678,-1.61,0.013,1.97,1001.63,30.5012,48.23488,16.367449,306.452,535.1076609183506,,0.0,158.06451,,3 / 16,163503,2016-09-12 08:46:34:461
-0.07324,0.24892,9.85414,-0.00225,0.27549,9.80278,0.01824,0.00992,0.00963,6.3E-4,-0.00233,-3.5E-4,6.54933,23.315,26.233,-5.725,318.678,-1.61,0.013,1.97,1001.63,32.2625,48.23488,16.367449,306.452,535.1076609183506,,0.0,158.06451,,3 / 16,164004,2016-09-12 08:46:34:962
-0.07324,0.24892,9.85414,-0.00225,0.27549,9.80278,0.01824,0.00992,0.00963,6.3E-4,-0.00233,-3.5E-4,6.54933,23.315,26.233,-5.725,318.678,-1.61,0.013,1.97,1001.63,30.2905,48.23488,16.367449,306.452,535.1076609183506,,0.0,158.06451,,3 / 16,164502,2016-09-12 08:46:35:460
-0.07324,0.24892,9.85414,-0.00225,0.27549,9.80278,0.01824,0.00992,0.00963,6.3E-4,-0.00233,-3.5E-4,6.54933,23.315,26.233,-5.725,318.678,-1.61,0.013,1.97,1001.63,32.5722,48.23488,16.367449,306.452,535.1076609183506,,0.0,158.06451,,3 / 16,165002,2016-09-12 08:46:35:960
-0.07324,0.24892,9.85414,-0.00225,0.27549,9.80278,0.01824,0.00992,0.00963,6.3E-4,-0.00233,-3.5E-4,6.54933,23.315,26.233,-5.725,318.678,-1.61,0.013,1.97,1001.63,27.8973,48.23488,16.367449,306.452,535.1076609183506,,0.0,158.06451,,3 / 16,165502,2016-09-12 08:46:36:460
-0.07324,0.24892,9.85414,-0.00225,0.27549,9.80278,0.01824,0.00992,0.00963,6.3E-4,-0.00233,-3.5E-4,6.54933,23.315,26.233,-5.725,318.678,-1.61,0.013,1.97,1001.63,30.8268,48.23488,16.367449,306.452,535.1076609183506,,0.0,158.06451,,3 / 16,166002,2016-09-12 08:46:36:960
-0.07324,0.24892,9.85414,-0.00225,0.27549,9.80278,0.01824,0.00992,0.00963,6.3E-4,-0.00233,-3.5E-4,6.54933,23.315,26.233,-5.725,318.678,-1.61,0.013,1.97,1001.63,31.3598,48.23488,16.367449,306.452,535.1076609183506,,0.0,158.06451,,3 / 16,166506,2016-09-12 08:46:37:464
-0.00844,0.28186,9.76416,-0.00225,0.27549,9.80278,0.01824,0.00992,0.00963,6.3E-4,-0.00233,-3.5E-4,6.54933,23.315,26.233,-5.725,318.678,-1.61,0.013,1.97,1001.63,31.5922,48.23488,16.367449,306.452,535.1076609183506,,0.0,158.06451,,3 / 16,167003,2016-09-12 08:46:37:961
-0.00844,0.28186,9.76416,-0.00225,0.27549,9.80278,0.01824,0.00992,0.00963,6.3E-4,-0.00233,-3.5E-4,6.54933,23.315,26.233,-5.725,318.678,-1.61,0.013,1.97,1001.63,33.2561,48.23488,16.367449,306.452,535.1076609183506,,0.0,158.06451,,3 / 16,167502,2016-09-12 08:46:38:460
-0.00844,0.28186,9.76416,-0.00611,0.26783,9.80299,-0.01837,-0.00554,0.00448,-6.1E-4,6.1E-4,-3.1E-4,6.54933,23.315,26.233,-5.725,318.678,-1.61,0.013,1.97,1001.63,31.8948,48.23488,16.367449,306.452,535.1076609183506,,0.0,158.06451,,3 / 16,168002,2016-09-12 08:46:38:960
-0.00844,0.28186,9.76416,-0.00611,0.26783,9.80299,-0.01837,-0.00554,0.00448,-6.1E-4,6.1E-4,-3.1E-4,6.54933,23.703,25.925,-4.387,317.403,-1.565,0.036,1.97,1001.6,33.3258,48.23488,16.367449,306.452,535.1076609183506,,0.0,158.06451,,3 / 16,168503,2016-09-12 08:46:39:461
-0.00844,0.28186,9.76416,-0.00611,0.26783,9.80299,-0.01837,-0.00554,0.00448,-6.1E-4,6.1E-4,-3.1E-4,6.54933,23.703,25.925,-4.387,317.403,-1.565,0.036,1.97,1001.6,29.9806,48.23488,16.367449,306.452,535.1076609183506,,0.0,158.06451,,3 / 16,169002,2016-09-12 08:46:39:960
-0.00844,0.28186,9.76416,-0.00611,0.26783,9.80299,-0.01837,-0.00554,0.00448,-6.1E-4,6.1E-4,-3.1E-4,6.54933,23.703,25.925,-4.387,317.403,-1.565,0.036,1.97,1001.6,31.3803,48.23488,16.367449,306.452,535.1076609183506,,0.0,158.06451,,3 / 16,169503,2016-09-12 08:46:40:461
-0.00844,0.28186,9.76416,-0.00611,0.26783,9.80299,-0.01837,-0.00554,0.00448,-6.1E-4,6.1E-4,-3.1E-4,6.54933,23.703,25.925,-4.387,317.403,-1.565,0.036,1.97,1001.6,36.0002,48.23488,16.367449,306.452,535.1076609183506,,0.0,158.06451,,3 / 16,170002,2016-09-12 08:46:40:960
-0.00844,0.28186,9.76416,-0.00611,0.26783,9.80299,-0.01837,-0.00554,0.00448,-6.1E-4,6.1E-4,-3.1E-4,6.54933,23.703,25.925,-4.387,317.403,-1.565,0.036,1.97,1001.6,34.5474,48.23488,16.367449,306.452,535.1076609183506,,0.0,158.06451,,3 / 16,170502,2016-09-12 08:46:41:460
-0.00844,0.28186,9.76416,-0.00611,0.26783,9.80299,-0.01837,-0.00554,0.00448,-6.1E-4,6.1E-4,-3.1E-4,6.54933,23.703,25.925,-4.387,317.403,-1.565,0.036,1.97,1001.6,32.5327,48.23488,16.367449,306.452,535.1076609183506,,0.0,158.06451,,3 / 16,171003,2016-09-12 08:46:41:961
-0.00844,0.28186,9.76416,-0.00611,0.26783,9.80299,-0.01837,-0.00554,0.00448,-6.1E-4,6.1E-4,-3.1E-4,6.54933,23.703,25.925,-4.387,317.403,-1.565,0.036,1.97,1001.6,33.4175,48.23488,16.367449,306.452,535.1076609183506,,0.0,158.06451,,3 / 16,171503,2016-09-12 08:46:42:461
0.00194,0.30655,9.79326,-0.00611,0.26783,9.80299,-0.01837,-0.00554,0.00448,-6.1E-4,6.1E-4,-3.1E-4,6.54933,23.703,25.925,-4.387,317.403,-1.565,0.036,1.97,1001.6,35.8319,48.23488,16.367449,306.452,535.1076609183506,,0.0,158.06451,,3 / 16,172002,2016-09-12 08:46:42:960
0.00194,0.30655,9.79326,-0.00611,0.26783,9.80299,-0.01837,-0.00554,0.00448,-6.1E-4,6.1E-4,-3.1E-4,6.54933,23.703,25.925,-4.387,317.403,-1.565,0.036,1.97,1001.6,36.7506,48.23488,16.367449,306.452,535.1076609183506,,0.0,158.06451,,3 / 16,172503,2016-09-12 08:46:43:461
0.00194,0.30655,9.79326,-0.00418,0.27261,9.80286,-0.00364,-0.00766,-0.00287,0.00142,-2.9E-4,-3.1E-4,6.54933,22.751,25.897,-3.517,318.616,-1.593,0.024,1.97,1001.6,36.1557,48.23488,16.367449,306.452,535.1076609183506,,0.0,158.06451,,3 / 16,173003,2016-09-12 08:46:43:961
0.00194,0.30655,9.79326,-0.00418,0.27261,9.80286,-0.00364,-0.00766,-0.00287,0.00142,-2.9E-4,-3.1E-4,6.54933,22.751,25.897,-3.517,318.616,-1.593,0.024,1.97,1001.6,27.15,48.23488,16.367449,306.452,535.1076609183506,,0.0,158.06451,,2 / 14,173504,2016-09-12 08:46:44:462
0.00194,0.30655,9.79326,-0.00418,0.27261,9.80286,-0.00364,-0.00766,-0.00287,0.00142,-2.9E-4,-3.1E-4,6.54933,22.751,25.897,-3.517,318.616,-1.593,0.024,1.97,1001.6,34.1135,48.23488,16.367449,306.452,535.1076609183506,,0.0,158.06451,,2 / 14,174002,2016-09-12 08:46:44:960
0.00194,0.30655,9.79326,-0.00418,0.27261,9.80286,-0.00364,-0.00766,-0.00287,0.00142,-2.9E-4,-3.1E-4,6.54933,22.751,25.897,-3.517,318.616,-1.593,0.024,1.97,1001.6,29.7542,48.23488,16.367449,306.452,535.1076609183506,,0.0,158.06451,,2 / 12,174503,2016-09-12 08:46:45:461
0.00194,0.30655,9.79326,-0.00418,0.27261,9.80286,-0.00364,-0.00766,-0.00287,0.00142,-2.9E-4,-3.1E-4,6.54933,22.751,25.897,-3.517,318.616,-1.593,0.024,1.97,1001.6,33.9599,48.23488,16.367449,306.452,535.1076609183506,,0.0,158.06451,,2 / 15,175002,2016-09-12 08:46:45:960
0.00194,0.30655,9.79326,-0.00418,0.27261,9.80286,-0.00364,-0.00766,-0.00287,0.00142,-2.9E-4,-3.1E-4,6.54933,22.751,25.897,-3.517,318.616,-1.593,0.024,1.97,1001.6,35.8876,48.23488,16.367449,306.452,535.1076609183506,,0.0,158.06451,,2 / 15,175502,2016-09-12 08:46:46:460
0.00194,0.30655,9.79326,-0.00418,0.27261,9.80286,-0.00364,-0.00766,-0.00287,0.00142,-2.9E-4,-3.1E-4,6.54933,22.751,25.897,-3.517,318.616,-1.593,0.024,1.97,1001.6,30.6171,48.23488,16.367449,306.452,535.1076609183506,,0.0,158.06451,,2 / 15,176002,2016-09-12 08:46:46:960
-0.02036,0.2655,9.77238,-0.00418,0.27261,9.80286,-0.00364,-0.00766,-0.00287,0.00142,-2.9E-4,-3.1E-4,6.54933,22.751,25.897,-3.517,318.616,-1.593,0.024,1.97,1001.6,29.9715,48.23488,16.367449,306.452,535.1076609183506,,0.0,158.06451,,2 / 15,176503,2016-09-12 08:46:47:461
-0.02036,0.2655,9.77238,-0.00418,0.27261,9.80286,-0.00364,-0.00766,-0.00287,0.00142,-2.9E-4,-3.1E-4,6.54933,22.751,25.897,-3.517,318.616,-1.593,0.024,1.97,1001.6,32.834,48.23488,16.367449,306.452,535.1076609183506,,0.0,158.06451,,2 / 15,177003,2016-09-12 08:46:47:961
-0.02036,0.2655,9.77238,-0.00418,0.27261,9.80286,-0.00364,-0.00766,-0.00287,0.00142,-2.9E-4,-3.1E-4,6.54933,22.751,25.897,-3.517,318.616,-1.593,0.024,1.97,1001.6,27.7445,48.23488,16.367449,306.452,535.1076609183506,,0.0,158.06451,,2 / 15,177504,2016-09-12 08:46:48:462
-0.02036,0.2655,9.77238,-0.00736,0.27207,9.80287,-0.00918,0.01223,0.00543,6.3E-4,9.0E-5,-9.8E-4,6.54933,23.222,25.018,-2.637,317.473,-1.59,0.043,1.97,1001.6,27.6721,48.23488,16.367449,306.452,535.1076609183506,,0.0,158.06451,,2 / 15,178002,2016-09-12 08:46:48:960
-0.02036,0.2655,9.77238,-0.00736,0.27207,9.80287,-0.00918,0.01223,0.00543,6.3E-4,9.0E-5,-9.8E-4,6.54933,23.222,25.018,-2.637,317.473,-1.59,0.043,1.97,1001.62,29.4406,48.23488,16.367449,306.452,535.1076609183506,,0.0,158.06451,,2 / 15,178502,2016-09-12 08:46:49:460
-0.02036,0.2655,9.77238,-0.00736,0.27207,9.80287,-0.00918,0.01223,0.00543,6.3E-4,9.0E-5,-9.8E-4,6.54933,23.222,25.018,-2.637,317.473,-1.59,0.043,1.97,1001.62,28.8198,48.23488,16.367449,306.452,535.1076609183506,,0.0,158.06451,,2 / 15,179003,2016-09-12 08:46:49:961
-0.02036,0.2655,9.77238,-0.00736,0.27207,9.80287,-0.00918,0.01223,0.00543,6.3E-4,9.0E-5,-9.8E-4,6.54933,23.222,25.018,-2.637,317.473,-1.59,0.043,1.97,1001.62,30.4223,48.23488,16.367449,306.452,535.1076609183506,,0.0,158.06451,,2 / 15,179503,2016-09-12 08:46:50:461
-0.02036,0.2655,9.77238,-0.00736,0.27207,9.80287,-0.00918,0.01223,0.00543,6.3E-4,9.0E-5,-9.8E-4,6.54933,23.222,25.018,-2.637,317.473,-1.59,0.043,1.97,1001.62,29.6074,48.23488,16.367449,306.452,535.1076609183506,,0.0,158.06451,,2 / 15,180002,2016-09-12 08:46:50:960
-0.02036,0.2655,9.77238,-0.00736,0.27207,9.80287,-0.00918,0.01223,0.00543,6.3E-4,9.0E-5,-9.8E-4,6.54933,23.222,25.018,-2.637,317.473,-1.59,0.043,1.97,1001.62,26.9074,48.23488,16.367449,306.452,535.1076609183506,,0.0,158.06451,,2 / 15,180502,2016-09-12 08:46:51:460
-0.02036,0.2655,9.77238,-0.00736,0.27207,9.80287,-0.00918,0.01223,0.00543,6.3E-4,9.0E-5,-9.8E-4,6.54933,23.222,25.018,-2.637,317.473,-1.59,0.043,1.97,1001.62,29.4351,48.23488,16.367449,306.452,535.1076609183506,,0.0,158.06451,,2 / 15,181003,2016-09-12 08:46:51:961
0.01192,0.25798,9.76279,-0.00736,0.27207,9.80287,-0.00918,0.01223,0.00543,6.3E-4,9.0E-5,-9.8E-4,6.54933,23.222,25.018,-2.637,317.473,-1.59,0.043,1.97,1001.62,30.2206,48.23488,16.367449,306.452,535.1076609183506,,0.0,158.06451,,2 / 15,181503,2016-09-12 08:46:52:461
0.01192,0.25798,9.76279,-0.00736,0.27207,9.80287,-0.00918,0.01223,0.00543,6.3E-4,9.0E-5,-9.8E-4,6.54933,23.222,25.018,-2.637,317.473,-1.59,0.043,1.97,1001.62,30.7158,48.23488,16.367449,306.452,535.1076609183506,,0.0,158.06451,,2 / 15,182003,2016-09-12 08:46:52:961
0.01192,0.25798,9.76279,-0.00736,0.27207,9.80287,-0.00918,0.01223,0.00543,6.3E-4,9.0E-5,-9.8E-4,6.54933,23.222,25.018,-2.637,317.473,-1.59,0.043,1.97,1001.62,28.2519,48.23488,16.367449,306.452,535.1076609183506,,0.0,158.06451,,2 / 15,182502,2016-09-12 08:46:53:460
0.01192,0.25798,9.76279,0.00448,0.2749,9.8028,0.02342,0.0033,-0.02355,0.00117,-8.5E-4,-3.1E-4,6.54933,23.869,26.561,-5.309,318.5,-1.606,-0.026,1.97,1001.62,28.7604,48.23488,16.367449,306.452,535.1076609183506,,0.0,158.06451,,2 / 14,183002,2016-09-12 08:46:53:960
0.01192,0.25798,9.76279,0.00448,0.2749,9.8028,0.02342,0.0033,-0.02355,0.00117,-8.5E-4,-3.1E-4,6.54933,23.869,26.561,-5.309,318.5,-1.606,-0.026,1.97,1001.61,27.267,48.23488,16.367449,306.452,535.1076609183506,,0.0,158.06451,,2 / 14,183504,2016-09-12 08:46:54:462
0.01192,0.25798,9.76279,0.00448,0.2749,9.8028,0.02342,0.0033,-0.02355,0.00117,-8.5E-4,-3.1E-4,6.54933,23.869,26.561,-5.309,318.5,-1.606,-0.026,1.97,1001.61,42.5474,48.23488,16.367449,306.452,535.1076609183506,,0.0,158.06451,,2 / 14,184002,2016-09-12 08:46:54:960
0.01192,0.25798,9.76279,0.00448,0.2749,9.8028,0.02342,0.0033,-0.02355,0.00117,-8.5E-4,-3.1E-4,6.54933,23.869,26.561,-5.309,318.5,-1.606,-0.026,1.97,1001.61,36.1592,48.23488,16.367449,306.452,535.1076609183506,,0.0,158.06451,,2 / 15,184503,2016-09-12 08:46:55:461
0.01192,0.25798,9.76279,0.00448,0.2749,9.8028,0.02342,0.0033,-0.02355,0.00117,-8.5E-4,-3.1E-4,6.54933,23.869,26.561,-5.309,318.5,-1.606,-0.026,1.97,1001.61,31.6126,48.23488,16.367449,306.452,535.1076609183506,,0.0,158.06451,,2 / 15,185002,2016-09-12 08:46:55:960
0.01192,0.25798,9.76279,0.00448,0.2749,9.8028,0.02342,0.0033,-0.02355,0.00117,-8.5E-4,-3.1E-4,6.54933,23.869,26.561,-5.309,318.5,-1.606,-0.026,1.97,1001.61,59.4542,48.23488,16.367449,306.452,535.1076609183506,,0.0,158.06451,,2 / 15,185502,2016-09-12 08:46:56:460
0.01192,0.25798,9.76279,0.00448,0.2749,9.8028,0.02342,0.0033,-0.02355,0.00117,-8.5E-4,-3.1E-4,6.54933,23.869,26.561,-5.309,318.5,-1.606,-0.026,1.97,1001.61,15.8353,48.23488,16.367449,306.452,535.1076609183506,,0.0,158.06451,,2 / 15,186006,2016-09-12 08:46:56:964
-0.01141,0.26132,9.75497,0.00448,0.2749,9.8028,0.02342,0.0033,-0.02355,0.00117,-8.5E-4,-3.1E-4,6.54933,23.869,26.561,-5.309,318.5,-1.606,-0.026,1.97,1001.61,15.6242,48.23488,16.367449,306.452,535.1076609183506,,0.0,158.06451,,2 / 15,186502,2016-09-12 08:46:57:460
-0.01141,0.26132,9.75497,0.00448,0.2749,9.8028,0.02342,0.0033,-0.02355,0.00117,-8.5E-4,-3.1E-4,6.54933,23.869,26.561,-5.309,318.5,-1.606,-0.026,1.97,1001.61,15.6219,48.23488,16.367449,306.452,535.1076609183506,,0.0,158.06451,,2 / 15,187003,2016-09-12 08:46:57:961
-0.01141,0.26132,9.75497,0.00448,0.2749,9.8028,0.02342,0.0033,-0.02355,0.00117,-8.5E-4,-3.1E-4,6.54933,23.869,26.561,-5.309,318.5,-1.606,-0.026,1.97,1001.61,17.6626,48.23488,16.367449,306.452,535.1076609183506,,0.0,158.06451,,2 / 15,187503,2016-09-12 08:46:58:461
-0.01141,0.26132,9.75497,-0.00204,0.27093,9.80291,-0.00578,-0.00776,-0.01648,0.0,-9.2E-4,1.5E-4,6.54933,23.416,26.532,-5.147,319.709,-1.583,0.012,1.97,1001.61,17.0924,48.23488,16.367449,306.452,535.1076609183506,,0.0,158.06451,,2 / 15,188003,2016-09-12 08:46:58:961
-0.01141,0.26132,9.75497,-0.00204,0.27093,9.80291,-0.00578,-0.00776,-0.01648,0.0,-9.2E-4,1.5E-4,6.54933,23.416,26.532,-5.147,319.709,-1.583,0.012,1.97,1001.59,25.4396,48.23488,16.367449,306.452,535.1076609183506,,0.0,158.06451,,2 / 15,188502,2016-09-12 08:46:59:460
-0.01141,0.26132,9.75497,-0.00204,0.27093,9.80291,-0.00578,-0.00776,-0.01648,0.0,-9.2E-4,1.5E-4,6.54933,23.416,26.532,-5.147,319.709,-1.583,0.012,1.97,1001.59,27.4552,48.23488,16.367449,306.452,535.1076609183506,,0.0,158.06451,,2 / 15,189002,2016-09-12 08:46:59:960
-0.01141,0.26132,9.75497,-0.00204,0.27093,9.80291,-0.00578,-0.00776,-0.01648,0.0,-9.2E-4,1.5E-4,6.54933,23.416,26.532,-5.147,319.709,-1.583,0.012,1.97,1001.59,68.8924,48.23488,16.367449,306.452,535.1076609183506,,0.0,158.06451,,2 / 15,189502,2016-09-12 08:47:00:460
-0.01141,0.26132,9.75497,-0.00204,0.27093,9.80291,-0.00578,-0.00776,-0.01648,0.0,-9.2E-4,1.5E-4,6.54933,23.416,26.532,-5.147,319.709,-1.583,0.012,1.97,1001.59,44.6059,48.23488,16.367449,306.452,535.1076609183506,,0.0,158.06451,,2 / 15,190002,2016-09-12 08:47:00:960
-0.01141,0.26132,9.75497,-0.00204,0.27093,9.80291,-0.00578,-0.00776,-0.01648,0.0,-9.2E-4,1.5E-4,6.54933,23.416,26.532,-5.147,319.709,-1.583,0.012,1.97,1001.59,25.4331,48.23488,16.367449,306.452,535.1076609183506,,0.0,158.06451,,2 / 15,190503,2016-09-12 08:47:01:461
-0.01141,0.26132,9.75497,-0.00204,0.27093,9.80291,-0.00578,-0.00776,-0.01648,0.0,-9.2E-4,1.5E-4,6.54933,23.416,26.532,-5.147,319.709,-1.583,0.012,1.97,1001.59,20.2983,48.23488,16.367449,306.452,535.1076609183506,,0.0,158.06451,,2 / 15,191002,2016-09-12 08:47:01:960
-0.0172,0.25244,9.75847,-0.00204,0.27093,9.80291,-0.00578,-0.00776,-0.01648,0.0,-9.2E-4,1.5E-4,6.54933,23.416,26.532,-5.147,319.709,-1.583,0.012,1.97,1001.59,15.8486,48.23488,16.367449,306.452,535.1076609183506,,0.0,158.06451,,2 / 15,191502,2016-09-12 08:47:02:460
-0.0172,0.25244,9.75847,-0.00204,0.27093,9.80291,-0.00578,-0.00776,-0.01648,0.0,-9.2E-4,1.5E-4,6.54933,23.416,26.532,-5.147,319.709,-1.583,0.012,1.97,1001.59,19.2644,48.23488,16.367449,306.452,535.1076609183506,,0.0,158.06451,,2 / 15,192002,2016-09-12 08:47:02:960
-0.0172,0.25244,9.75847,-0.00204,0.27093,9.80291,-0.00578,-0.00776,-0.01648,0.0,-9.2E-4,1.5E-4,6.54933,23.416,26.532,-5.147,319.709,-1.583,0.012,1.97,1001.59,22.4553,48.23488,16.367449,306.452,535.1076609183506,,0.0,158.06451,,2 / 15,192503,2016-09-12 08:47:03:461
-0.0172,0.25244,9.75847,-0.00583,0.26969,9.80294,-0.01152,-0.00714,0.02007,-0.0011,6.9E-4,8.4E-4,6.54933,23.09,25.984,-4.999,318.647,-1.576,0.034,1.97,1001.59,24.1471,48.23488,16.367449,306.452,535.1076609183506,,0.0,158.06451,,2 / 15,193003,2016-09-12 08:47:03:961
-0.0172,0.25244,9.75847,-0.00583,0.26969,9.80294,-0.01152,-0.00714,0.02007,-0.0011,6.9E-4,8.4E-4,6.54933,23.09,25.984,-4.999,318.647,-1.576,0.034,1.97,1001.59,26.8064,48.23488,16.367449,306.452,535.1076609183506,,0.0,158.06451,,2 / 15,193503,2016-09-12 08:47:04:461
-0.0172,0.25244,9.75847,-0.00583,0.26969,9.80294,-0.01152,-0.00714,0.02007,-0.0011,6.9E-4,8.4E-4,6.54933,23.09,25.984,-4.999,318.647,-1.576,0.034,1.97,1001.59,29.6179,48.23488,16.367449,306.452,535.1076609183506,,0.0,158.06451,,2 / 15,194003,2016-09-12 08:47:04:961
-0.0172,0.25244,9.75847,-0.00583,0.26969,9.80294,-0.01152,-0.00714,0.02007,-0.0011,6.9E-4,8.4E-4,6.54933,23.09,25.984,-4.999,318.647,-1.576,0.034,1.97,1001.59,29.7408,48.23488,16.367449,306.452,535.1076609183506,,0.0,158.06451,,0 / 14,194503,2016-09-12 08:47:05:461
-0.0172,0.25244,9.75847,-0.00583,0.26969,9.80294,-0.01152,-0.00714,0.02007,-0.0011,6.9E-4,8.4E-4,6.54933,23.09,25.984,-4.999,318.647,-1.576,0.034,1.97,1001.59,28.6527,48.23488,16.367449,306.452,535.1076609183506,,0.0,158.06451,,0 / 14,195003,2016-09-12 08:47:05:961
-0.0172,0.25244,9.75847,-0.00583,0.26969,9.80294,-0.01152,-0.00714,0.02007,-0.0011,6.9E-4,8.4E-4,6.54933,23.09,25.984,-4.999,318.647,-1.576,0.034,1.97,1001.59,29.9088,48.23488,16.367449,306.452,535.1076609183506,,0.0,158.06451,,0 / 15,195502,2016-09-12 08:47:06:460
-0.0172,0.25244,9.75847,-0.00583,0.26969,9.80294,-0.01152,-0.00714,0.02007,-0.0011,6.9E-4,8.4E-4,6.54933,23.09,25.984,-4.999,318.647,-1.576,0.034,1.97,1001.59,29.9602,48.23488,16.367449,306.452,535.1076609183506,,0.0,158.06451,,0 / 15,196002,2016-09-12 08:47:06:960
-0.03099,0.2706,9.78922,-0.00583,0.26969,9.80294,-0.01152,-0.00714,0.02007,-0.0011,6.9E-4,8.4E-4,6.54933,23.09,25.984,-4.999,318.647,-1.576,0.034,1.97,1001.59,29.8257,48.23488,16.367449,306.452,535.1076609183506,,0.0,158.06451,,0 / 15,196503,2016-09-12 08:47:07:461
-0.03099,0.2706,9.78922,-0.00583,0.26969,9.80294,-0.01152,-0.00714,0.02007,-0.0011,6.9E-4,8.4E-4,6.54933,23.09,25.984,-4.999,318.647,-1.576,0.034,1.97,1001.59,31.204,48.23488,16.367449,306.452,535.1076609183506,,0.0,158.06451,,0 / 15,197002,2016-09-12 08:47:07:960
-0.03099,0.2706,9.78922,-0.00583,0.26969,9.80294,-0.01152,-0.00714,0.02007,-0.0011,6.9E-4,8.4E-4,6.54933,23.09,25.984,-4.999,318.647,-1.576,0.034,1.97,1001.59,33.1638,48.23488,16.367449,306.452,535.1076609183506,,0.0,158.06451,,0 / 15,197504,2016-09-12 08:47:08:462
-0.03099,0.2706,9.78922,-0.00686,0.27607,9.80276,0.003,4.8E-4,-0.0255,7.2E-4,-8.9E-4,-2.3E-4,6.54933,23.302,26.309,-5.344,318.651,-1.613,0.04,1.97,1001.59,29.7643,48.23488,16.367449,306.452,535.1076609183506,,0.0,158.06451,,0 / 15,198002,2016-09-12 08:47:08:960
-0.03099,0.2706,9.78922,-0.00686,0.27607,9.80276,0.003,4.8E-4,-0.0255,7.2E-4,-8.9E-4,-2.3E-4,6.54933,23.302,26.309,-5.344,318.651,-1.613,0.04,1.97,1001.61,32.8143,48.23488,16.367449,306.452,535.1076609183506,,0.0,158.06451,,0 / 15,198503,2016-09-12 08:47:09:461
-0.03099,0.2706,9.78922,-0.00686,0.27607,9.80276,0.003,4.8E-4,-0.0255,7.2E-4,-8.9E-4,-2.3E-4,6.54933,23.302,26.309,-5.344,318.651,-1.613,0.04,1.97,1001.61,26.0128,48.23488,16.367449,306.452,535.1076609183506,,0.0,158.06451,,0 / 15,199002,2016-09-12 08:47:09:960
-0.03099,0.2706,9.78922,-0.00686,0.27607,9.80276,0.003,4.8E-4,-0.0255,7.2E-4,-8.9E-4,-2.3E-4,6.54933,23.302,26.309,-5.344,318.651,-1.613,0.04,1.97,1001.61,31.1973,48.23488,16.367449,306.452,535.1076609183506,,0.0,158.06451,,0 / 15,199504,2016-09-12 08:47:10:462
-0.03099,0.2706,9.78922,-0.00686,0.27607,9.80276,0.003,4.8E-4,-0.0255,7.2E-4,-8.9E-4,-2.3E-4,6.54933,23.302,26.309,-5.344,318.651,-1.613,0.04,1.97,1001.61,26.1835,48.23488,16.367449,306.452,535.1076609183506,,0.0,158.06451,,0 / 14,200002,2016-09-12 08:47:10:960
-0.03099,0.2706,9.78922,-0.00686,0.27607,9.80276,0.003,4.8E-4,-0.0255,7.2E-4,-8.9E-4,-2.3E-4,6.54933,23.302,26.309,-5.344,318.651,-1.613,0.04,1.97,1001.61,30.9599,48.23488,16.367449,306.452,535.1076609183506,,0.0,158.06451,,0 / 14,200502,2016-09-12 08:47:11:460
-0.03099,0.2706,9.78922,-0.00686,0.27607,9.80276,0.003,4.8E-4,-0.0255,7.2E-4,-8.9E-4,-2.3E-4,6.54933,23.302,26.309,-5.344,318.651,-1.613,0.04,1.97,1001.61,23.1658,48.23488,16.367449,306.452,535.1076609183506,,0.0,158.06451,,0 / 15,201003,2016-09-12 08:47:11:961
0.01733,0.30458,9.75153,-0.00686,0.27607,9.80276,0.003,4.8E-4,-0.0255,7.2E-4,-8.9E-4,-2.3E-4,6.54933,23.302,26.309,-5.344,318.651,-1.613,0.04,1.97,1001.61,32.3647,48.23488,16.367449,306.452,535.1076609183506,,0.0,158.06451,,0 / 15,201503,2016-09-12 08:47:12:461
0.01733,0.30458,9.75153,-0.00686,0.27607,9.80276,0.003,4.8E-4,-0.0255,7.2E-4,-8.9E-4,-2.3E-4,6.54933,23.302,26.309,-5.344,318.651,-1.613,0.04,1.97,1001.61,28.5029,48.23488,16.367449,306.452,535.1076609183506,,0.0,158.06451,,0 / 15,202003,2016-09-12 08:47:12:961
0.01733,0.30458,9.75153,-0.00686,0.27607,9.80276,0.003,4.8E-4,-0.0255,7.2E-4,-8.9E-4,-2.3E-4,6.54933,23.302,26.309,-5.344,318.651,-1.613,0.04,1.97,1001.61,31.0264,48.23488,16.367449,306.452,535.1076609183506,,0.0,158.06451,,0 / 15,202503,2016-09-12 08:47:13:461
0.01733,0.30458,9.75153,-0.01029,0.26805,9.80298,0.03023,-0.01902,-0.00604,4.6E-4,8.9E-4,-0.0013,6.54933,23.782,26.003,-6.642,317.499,-1.566,0.06,1.97,1001.61,31.0191,48.23488,16.367449,306.452,535.1076609183506,,0.0,158.06451,,0 / 15,203002,2016-09-12 08:47:13:960
0.01733,0.30458,9.75153,-0.01029,0.26805,9.80298,0.03023,-0.01902,-0.00604,4.6E-4,8.9E-4,-0.0013,6.54933,23.782,26.003,-6.642,317.499,-1.566,0.06,1.97,1001.59,30.6781,48.23488,16.367449,306.452,535.1076609183506,,0.0,158.06451,,0 / 15,203504,2016-09-12 08:47:14:462
0.01733,0.30458,9.75153,-0.01029,0.26805,9.80298,0.03023,-0.01902,-0.00604,4.6E-4,8.9E-4,-0.0013,6.54933,23.782,26.003,-6.642,317.499,-1.566,0.06,1.97,1001.59,29.4424,48.23488,16.367449,306.452,535.1076609183506,,0.0,158.06451,,0 / 15,204004,2016-09-12 08:47:14:962
0.01733,0.30458,9.75153,-0.01029,0.26805,9.80298,0.03023,-0.01902,-0.00604,4.6E-4,8.9E-4,-0.0013,6.54933,23.782,26.003,-6.642,317.499,-1.566,0.06,1.97,1001.59,30.7131,48.23488,16.367449,306.452,535.1076609183506,,0.0,158.06451,,0 / 15,204503,2016-09-12 08:47:15:461
0.01733,0.30458,9.75153,-0.01029,0.26805,9.80298,0.03023,-0.01902,-0.00604,4.6E-4,8.9E-4,-0.0013,6.54933,23.782,26.003,-6.642,317.499,-1.566,0.06,1.97,1001.59,28.9413,48.23488,16.367449,306.452,535.1076609183506,,0.0,158.06451,,0 / 15,205002,2016-09-12 08:47:15:960
0.01733,0.30458,9.75153,-0.01029,0.26805,9.80298,0.03023,-0.01902,-0.00604,4.6E-4,8.9E-4,-0.0013,6.54933,23.782,26.003,-6.642,317.499,-1.566,0.06,1.97,1001.59,30.9196,48.23488,16.367449,306.452,535.1076609183506,,0.0,158.06451,,0 / 15,205502,2016-09-12 08:47:16:460
0.01733,0.30458,9.75153,-0.01029,0.26805,9.80298,0.03023,-0.01902,-0.00604,4.6E-4,8.9E-4,-0.0013,6.54933,23.782,26.003,-6.642,317.499,-1.566,0.06,1.97,1001.59,33.8372,48.23488,16.367449,306.452,535.1076609183506,,0.0,158.06451,,0 / 15,206002,2016-09-12 08:47:16:960
0.00259,0.25645,9.74876,-0.01029,0.26805,9.80298,0.03023,-0.01902,-0.00604,4.6E-4,8.9E-4,-0.0013,6.54933,23.782,26.003,-6.642,317.499,-1.566,0.06,1.97,1001.59,29.1989,48.23488,16.367449,306.452,535.1076609183506,,0.0,158.06451,,0 / 15,206508,2016-09-12 08:47:17:466
0.00259,0.25645,9.74876,-0.01029,0.26805,9.80298,0.03023,-0.01902,-0.00604,4.6E-4,8.9E-4,-0.0013,6.54933,23.782,26.003,-6.642,317.499,-1.566,0.06,1.97,1001.59,28.4648,48.23488,16.367449,306.452,535.1076609183506,,0.0,158.06451,,0 / 15,207002,2016-09-12 08:47:17:960
0.00259,0.25645,9.74876,-0.01029,0.26805,9.80298,0.03023,-0.01902,-0.00604,4.6E-4,8.9E-4,-0.0013,6.54933,23.782,26.003,-6.642,317.499,-1.566,0.06,1.97,1001.59,32.6311,48.23488,16.367449,306.452,535.1076609183506,,0.0,158.06451,,0 / 15,207503,2016-09-12 08:47:18:461
0.00259,0.25645,9.74876,-0.01033,0.26672,9.80302,-0.01099,-0.02097,0.00426,6.7E-4,2.0E-5,7.8E-4,6.54933,23.726,24.896,-4.84,316.321,-1.559,0.06,1.97,1001.59,28.4242,48.23488,16.367449,306.452,535.1076609183506,,0.0,158.06451,,0 / 15,208002,2016-09-12 08:47:18:960
0.00259,0.25645,9.74876,-0.01033,0.26672,9.80302,-0.01099,-0.02097,0.00426,6.7E-4,2.0E-5,7.8E-4,6.54933,23.726,24.896,-4.84,316.321,-1.559,0.06,1.97,1001.62,32.3241,48.23488,16.367449,306.452,535.1076609183506,,0.0,158.06451,,0 / 15,208503,2016-09-12 08:47:19:461
0.00259,0.25645,9.74876,-0.01033,0.26672,9.80302,-0.01099,-0.02097,0.00426,6.7E-4,2.0E-5,7.8E-4,6.54933,23.726,24.896,-4.84,316.321,-1.559,0.06,1.97,1001.62,32.0447,48.23488,16.367449,306.452,535.1076609183506,,0.0,158.06451,,0 / 15,209002,2016-09-12 08:47:19:960
0.00259,0.25645,9.74876,-0.01033,0.26672,9.80302,-0.01099,-0.02097,0.00426,6.7E-4,2.0E-5,7.8E-4,6.54933,23.726,24.896,-4.84,316.321,-1.559,0.06,1.97,1001.62,27.9494,48.23488,16.367449,306.452,535.1076609183506,,0.0,158.06451,,0 / 14,209502,2016-09-12 08:47:20:460
0.00259,0.25645,9.74876,-0.01033,0.26672,9.80302,-0.01099,-0.02097,0.00426,6.7E-4,2.0E-5,7.8E-4,6.54933,23.726,24.896,-4.84,316.321,-1.559,0.06,1.97,1001.62,29.6859,48.23488,16.367449,306.452,535.1076609183506,,0.0,158.06451,,0 / 15,210002,2016-09-12 08:47:20:960
0.00259,0.25645,9.74876,-0.01033,0.26672,9.80302,-0.01099,-0.02097,0.00426,6.7E-4,2.0E-5,7.8E-4,6.54933,23.726,24.896,-4.84,316.321,-1.559,0.06,1.97,1001.62,28.9699,48.23488,16.367449,306.452,535.1076609183506,,0.0,158.06451,,0 / 15,210508,2016-09-12 08:47:21:466
0.00259,0.25645,9.74876,-0.01033,0.26672,9.80302,-0.01099,-0.02097,0.00426,6.7E-4,2.0E-5,7.8E-4,6.54933,23.726,24.896,-4.84,316.321,-1.559,0.06,1.97,1001.62,30.1398,48.23488,16.367449,306.452,535.1076609183506,,0.0,158.06451,,0 / 15,211002,2016-09-12 08:47:21:960
-6.7E-4,0.26164,9.81836,-0.01033,0.26672,9.80302,-0.01099,-0.02097,0.00426,6.7E-4,2.0E-5,7.8E-4,6.54933,23.726,24.896,-4.84,316.321,-1.559,0.06,1.97,1001.62,28.1725,48.23488,16.367449,306.452,535.1076609183506,,0.0,158.06451,,0 / 15,211502,2016-09-12 08:47:22:460
-6.7E-4,0.26164,9.81836,-0.01033,0.26672,9.80302,-0.01099,-0.02097,0.00426,6.7E-4,2.0E-5,7.8E-4,6.54933,23.726,24.896,-4.84,316.321,-1.559,0.06,1.97,1001.62,25.8943,48.23488,16.367449,306.452,535.1076609183506,,0.0,158.06451,,0 / 15,212002,2016-09-12 08:47:22:960
-6.7E-4,0.26164,9.81836,-0.01033,0.26672,9.80302,-0.01099,-0.02097,0.00426,6.7E-4,2.0E-5,7.8E-4,6.54933,23.726,24.896,-4.84,316.321,-1.559,0.06,1.97,1001.62,29.728,48.23488,16.367449,306.452,535.1076609183506,,0.0,158.06451,,0 / 15,212503,2016-09-12 08:47:23:461
-6.7E-4,0.26164,9.81836,-0.00901,0.27034,9.80292,-0.02342,-0.00857,-0.05799,-3.2E-4,-5.0E-5,-2.3E-4,6.54933,23.827,27.014,-5.835,318.537,-1.58,0.053,1.97,1001.62,29.2154,48.23488,16.367449,306.452,535.1076609183506,,0.0,158.06451,,0 / 15,213003,2016-09-12 08:47:23:961
-6.7E-4,0.26164,9.81836,-0.00901,0.27034,9.80292,-0.02342,-0.00857,-0.05799,-3.2E-4,-5.0E-5,-2.3E-4,6.54933,23.827,27.014,-5.835,318.537,-1.58,0.053,1.97,1001.62,29.6009,48.23488,16.367449,306.452,535.1076609183506,,0.0,158.06451,,0 / 15,213502,2016-09-12 08:47:24:460
-6.7E-4,0.26164,9.81836,-0.00901,0.27034,9.80292,-0.02342,-0.00857,-0.05799,-3.2E-4,-5.0E-5,-2.3E-4,6.54933,23.827,27.014,-5.835,318.537,-1.58,0.053,1.97,1001.62,26.8475,48.23488,16.367449,306.452,535.1076609183506,,0.0,158.06451,,0 / 15,214003,2016-09-12 08:47:24:961
-6.7E-4,0.26164,9.81836,-0.00901,0.27034,9.80292,-0.02342,-0.00857,-0.05799,-3.2E-4,-5.0E-5,-2.3E-4,6.54933,23.827,27.014,-5.835,318.537,-1.58,0.053,1.97,1001.62,28.8822,48.23488,16.367449,306.452,535.1076609183506,,0.0,158.06451,,0 / 15,214503,2016-09-12 08:47:25:461
-6.7E-4,0.26164,9.81836,-0.00901,0.27034,9.80292,-0.02342,-0.00857,-0.05799,-3.2E-4,-5.0E-5,-2.3E-4,6.54933,23.827,27.014,-5.835,318.537,-1.58,0.053,1.97,1001.62,31.1775,48.23488,16.367449,306.452,535.1076609183506,,0.0,158.06451,,0 / 15,215003,2016-09-12 08:47:25:961
-6.7E-4,0.26164,9.81836,-0.00901,0.27034,9.80292,-0.02342,-0.00857,-0.05799,-3.2E-4,-5.0E-5,-2.3E-4,6.54933,23.827,27.014,-5.835,318.537,-1.58,0.053,1.97,1001.62,27.6485,48.23488,16.367449,306.452,535.1076609183506,,0.0,158.06451,,0 / 15,215503,2016-09-12 08:47:26:461
-6.7E-4,0.26164,9.81836,-0.00901,0.27034,9.80292,-0.02342,-0.00857,-0.05799,-3.2E-4,-5.0E-5,-2.3E-4,6.54933,23.827,27.014,-5.835,318.537,-1.58,0.053,1.97,1001.62,29.5465,48.23488,16.367449,306.452,535.1076609183506,,0.0,158.06451,,0 / 15,216005,2016-09-12 08:47:26:963
0.01166,0.30632,9.73854,-0.00901,0.27034,9.80292,-0.02342,-0.00857,-0.05799,-3.2E-4,-5.0E-5,-2.3E-4,6.54933,23.827,27.014,-5.835,318.537,-1.58,0.053,1.97,1001.62,29.7554,48.23488,16.367449,306.452,535.1076609183506,,0.0,158.06451,,0 / 15,216502,2016-09-12 08:47:27:460
0.01166,0.30632,9.73854,-0.00901,0.27034,9.80292,-0.02342,-0.00857,-0.05799,-3.2E-4,-5.0E-5,-2.3E-4,6.54933,23.827,27.014,-5.835,318.537,-1.58,0.053,1.97,1001.62,28.8152,48.23488,16.367449,306.452,535.1076609183506,,0.0,158.06451,,0 / 15,217002,2016-09-12 08:47:27:960
0.01166,0.30632,9.73854,-0.00901,0.27034,9.80292,-0.02342,-0.00857,-0.05799,-3.2E-4,-5.0E-5,-2.3E-4,6.54933,23.827,27.014,-5.835,318.537,-1.58,0.053,1.97,1001.62,28.7831,48.23488,16.367449,306.452,535.1076609183506,,0.0,158.06451,,0 / 15,217502,2016-09-12 08:47:28:460
0.01166,0.30632,9.73854,-0.00627,0.26995,9.80293,-0.00235,-0.01933,0.00225,-2.4E-4,-8.9E-4,-2.3E-4,6.54933,23.705,25.241,-7.367,316.384,-1.577,0.037,1.97,1001.6,24.1666,48.23488,16.367449,306.452,535.1076609183506,,0.0,158.06451,,0 / 15,218003,2016-09-12 08:47:28:961
0.01166,0.30632,9.73854,-0.00627,0.26995,9.80293,-0.00235,-0.01933,0.00225,-2.4E-4,-8.9E-4,-2.3E-4,6.54933,23.705,25.241,-7.367,316.384,-1.577,0.037,1.97,1001.6,26.3293,48.23488,16.367449,306.452,535.1076609183506,,0.0,158.06451,,0 / 15,218503,2016-09-12 08:47:29:461
0.01166,0.30632,9.73854,-0.00627,0.26995,9.80293,-0.00235,-0.01933,0.00225,-2.4E-4,-8.9E-4,-2.3E-4,6.54933,23.705,25.241,-7.367,316.384,-1.577,0.037,1.97,1001.6,29.2119,48.23488,16.367449,306.452,535.1076609183506,,0.0,158.06451,,0 / 15,219002,2016-09-12 08:47:29:960
0.01166,0.30632,9.73854,-0.00627,0.26995,9.80293,-0.00235,-0.01933,0.00225,-2.4E-4,-8.9E-4,-2.3E-4,6.54933,23.705,25.241,-7.367,316.384,-1.577,0.037,1.97,1001.6,28.9825,48.23488,16.367449,306.452,535.1076609183506,,0.0,158.06451,,0 / 15,219503,2016-09-12 08:47:30:461
0.01166,0.30632,9.73854,-0.00627,0.26995,9.80293,-0.00235,-0.01933,0.00225,-2.4E-4,-8.9E-4,-2.3E-4,6.54933,23.705,25.241,-7.367,316.384,-1.577,0.037,1.97,1001.6,25.2985,48.23488,16.367449,306.452,535.1076609183506,,0.0,158.06451,,0 / 15,220006,2016-09-12 08:47:30:964
0.01166,0.30632,9.73854,-0.00627,0.26995,9.80293,-0.00235,-0.01933,0.00225,-2.4E-4,-8.9E-4,-2.3E-4,6.54933,23.705,25.241,-7.367,316.384,-1.577,0.037,1.97,1001.6,27.2973,48.23488,16.367449,306.452,535.1076609183506,,0.0,158.06451,,0 / 15,220502,2016-09-12 08:47:31:460
0.01166,0.30632,9.73854,-0.00627,0.26995,9.80293,-0.00235,-0.01933,0.00225,-2.4E-4,-8.9E-4,-2.3E-4,6.54933,23.705,25.241,-7.367,316.384,-1.577,0.037,1.97,1001.6,28.8102,48.23488,16.367449,306.452,535.1076609183506,,0.0,158.06451,,0 / 15,221002,2016-09-12 08:47:31:960
-0.01413,0.27206,9.76596,-0.00627,0.26995,9.80293,-0.00235,-0.01933,0.00225,-2.4E-4,-8.9E-4,-2.3E-4,6.54933,23.705,25.241,-7.367,316.384,-1.577,0.037,1.97,1001.6,30.0617,48.23488,16.367449,306.452,535.1076609183506,,0.0,158.06451,,0 / 15,221503,2016-09-12 08:47:32:461
-0.01413,0.27206,9.76596,-0.00627,0.26995,9.80293,-0.00235,-0.01933,0.00225,-2.4E-4,-8.9E-4,-2.3E-4,6.54933,23.705,25.241,-7.367,316.384,-1.577,0.037,1.97,1001.6,30.5317,48.23488,16.367449,306.452,535.1076609183506,,0.0,158.06451,,0 / 15,222002,2016-09-12 08:47:32:960
-0.01413,0.27206,9.76596,-0.00696,0.27362,9.80283,-0.01356,0.01192,0.01215,-2.4E-4,-8.9E-4,-2.3E-4,6.54933,23.705,25.241,-7.367,316.384,-1.577,0.037,1.97,1001.6,28.7465,48.23488,16.367449,306.452,535.1076609183506,,0.0,158.06451,,0 / 15,222503,2016-09-12 08:47:33:461
-0.01413,0.27206,9.76596,-0.00696,0.27362,9.80283,-0.01356,0.01192,0.01215,-1.4E-4,-2.7E-4,4.1E-4,6.54933,22.926,26.065,-5.534,318.681,-1.599,0.041,1.97,1001.6,26.9232,48.23488,16.367449,306.452,535.1076609183506,,0.0,158.06451,,0 / 15,223003,2016-09-12 08:47:33:961
